Timestamp (ms),Accel X (g),Accel Y (g),Accel Z (g)
1499369103739,-0.9285420004577705,-0.3975280384527351,-0.0499885557335773
1499369103755,-0.9291523613336383,-0.4030212863355458,-0.04522774090180803
1499369103771,-0.9298847943846797,-0.4025329976348515,-0.03717097734035235
1499369103787,-0.9306172274357212,-0.3937438010223544,-0.03582818341344307
1499369103803,-0.9195086594949262,-0.3849546044098573,-0.05218585488670158
1499369103819,-0.913038834210727,-0.3794613565270466,-0.07513542381933336
1499369103835,-0.9125505455100327,-0.38129243915465016,-0.09576562142366685
1499369103851,-0.9226825360494391,-0.39362172884718083,-0.06756694895857196
1499369103867,-0.927809567406729,-0.4004577706569008,-0.048157473105973736
1499369103883,-0.9317158770122833,-0.40363164721141365,-0.024719615472648115
1499369103899,-0.926100556954299,-0.3966735332265201,-0.034973678187228074
1499369103915,-0.9214618142977034,-0.39520866712443725,-0.040344853894865196
1499369103930,-0.9239032578011748,-0.3987487602044708,-0.040344853894865196
1499369103946,-0.9263447013046462,-0.4020447089341572,-0.02935835812924381
1499369103962,-0.9217059586480505,-0.4013122758831158,-0.028503852903028815
1499369103978,-0.9196307316700998,-0.40411993591210793,-0.01861600671396957
1499369103994,-0.9229266803997862,-0.4028992141603722,-0.0012817578393224949
1499369104010,-0.9167009994659341,-0.3954528114747844,0.002990768291752488
1499369104026,-0.9162127107652398,-0.3991149767299915,0.009582665751125319
1499369104042,-0.9109636072327763,-0.4021667811093308,1.831082627603564E-4
1499369104058,-0.9179217212176698,-0.41083390554665433,6.103608758678547E-5
1499369104074,-0.9855497062638285,-0.4247501335164414,0.09832913710231139
1499369104090,-1.0281528953994048,-0.41461814297703503,0.16815442130159486
1499369104106,-0.9865262836652171,-0.3601739528496224,0.08465705348287145
1499369104122,-0.9574731059739072,-0.3486991683833067,0.08087281605249075
1499369104138,-0.9418478675516901,-0.37006179903868164,0.13885709925993783
1499369104154,-0.9057145037003127,-0.3832455939574273,0.1491111619745178
1499369104170,-0.865796902418555,-0.4005798428320744,0.11798275730525631
1499369104186,-0.8397955291065844,-0.44574654764629607,0.04461738002594018
1499369104202,-0.8351567864499887,-0.46430151827267885,-0.042664225223163044
1499369104218,-0.8311284046692609,-0.461127641718166,-0.1106584267948425
1499369104234,-0.841626611734188,-0.4674753948271917,-0.13482871747920955
1499369104250,-0.86494239719234,-0.47565423056382095,-0.10968184939345393
1499369104266,-0.8915541313801785,-0.4387884336614025,-0.010315098802166744
1499369104282,-0.9140154116121155,-0.41412985427634075,0.12115663385976916
1499369104298,-0.9270771343556876,-0.42230869001297,0.17792019531548053
1499369104314,-0.9191424429694055,-0.42926680399786354,0.14056610971236783
1499369104330,-0.897657740138857,-0.4357366292820628,0.07342641336690292
1499369104346,-0.8893568322270542,-0.4414740215152211,0.049134050507362304
1499369104362,-0.9008316166933699,-0.4343938353551535,0.07415884641794435
1499369104378,-0.9162127107652398,-0.42499427786678856,0.10296787975890709
1499369104394,-0.9268329900053405,-0.41791409170672145,0.10992599374380063
1499369104410,-0.9191424429694055,-0.41889066910811,0.0861219195849543
1499369104426,-0.9123064011596855,-0.4323186083772028,0.0747692072938122
1499369104442,-0.9101091020065613,-0.43646906233310423,0.08160524910353217
1499369104458,-0.9051041428244448,-0.4314641031509878,0.08917372396429357
1499369104474,-0.9008316166933699,-0.4290226596475164,0.09173723964293856
1499369104490,-0.9005874723430227,-0.43390554665445924,0.08099488822766432
1499369104506,-0.9059586480506598,-0.43683527885862494,0.07830930037384576
1499369104522,-0.9054703593499656,-0.43598077363240995,0.0785534447241929
1499369104538,-0.905348287174792,-0.43134203097581425,0.07464713511863863
1499369104554,-0.9075455863279163,-0.42975509269855783,0.0806286717021436
1499369104570,-0.9085221637293048,-0.42999923704890497,0.0764782177462422
1499369104586,-0.9097428854810405,-0.43378347447928567,0.07904173342488718
1499369104602,-0.9075455863279163,-0.4370794232089721,0.07904173342488718
1499369104618,-0.9060807202258334,-0.4352483405813685,0.08282597085526788
1499369104634,-0.9049820706492713,-0.42670328831921855,0.08941786831464071
1499369104650,-0.8970473792629892,-0.4102235446707865,0.07660028992141577
1499369104666,-0.8991226062409399,-0.4176699473563743,0.07598992904554791
1499369104682,-0.9008316166933699,-0.43134203097581425,0.07904173342488718
1499369104698,-0.9058365758754863,-0.4306095979247728,0.08709849698634287
1499369104714,-0.9081559472037841,-0.41669336995498574,0.07293812466620864
1499369104730,-0.9085221637293048,-0.4125429159990843,0.07257190814068792
1499369104746,-0.9073014419775691,-0.4169375143053329,0.07379262989242363
1499369104762,-0.9064469367513541,-0.42291905088883786,0.07244983596551435
1499369104778,-0.9063248645761806,-0.4226749065384907,0.07135118638895221
1499369104794,-0.9052262149996184,-0.42340733958953214,0.06939803158617508
1499369104810,-0.9075455863279163,-0.4235294117647057,0.07440299076829149
1499369104826,-0.9065690089265277,-0.4219424734874493,0.07220569161516721
1499369104842,-0.9052262149996184,-0.424872205691615,0.07367055771725006
1499369104858,-0.9058365758754863,-0.4269474326695657,0.07440299076829149
1499369104874,-0.9081559472037841,-0.4240177004654,0.07550164034485363
1499369104890,-0.9094987411306934,-0.42206454566262286,0.07794308384832505
1499369104906,-0.9125505455100327,-0.4245059891660943,0.08477912565804502
1499369104922,-0.9093766689555198,-0.4253604943923093,0.08636606393530144
1499369104938,-0.9025406271457999,-0.424872205691615,0.08038452735179646
1499369104954,-0.8979018844892042,-0.4253604943923093,0.0785534447241929
1499369104970,-0.898512245365072,-0.4306095979247728,0.08172732127870574
1499369104986,-0.9058365758754863,-0.42975509269855783,0.08331425955596217
1499369105002,-0.907911802853437,-0.4253604943923093,0.07830930037384576
1499369105018,-0.908766308079652,-0.424872205691615,0.0756237125200272
1499369105034,-0.9086442359044784,-0.4293888761730371,0.07598992904554791
1499369105050,-0.9074235141527427,-0.42999923704890497,0.07379262989242363
1499369105066,-0.9043717097734034,-0.4290226596475164,0.0726939803158615
1499369105082,-0.9026626993209734,-0.42706950484473927,0.07318226901655578
1499369105098,-0.9040054932478827,-0.4268253604943921,0.07403677424277078
1499369105114,-0.9054703593499656,-0.426581216144045,0.07281605249103507
1499369105130,-0.9057145037003127,-0.42621499961852427,0.07208361943999364
1499369105146,-0.9059586480506598,-0.4290226596475164,0.07293812466620864
1499369105162,-0.9066910811017013,-0.428290226596475,0.07061875333791079
1499369105178,-0.9093766689555198,-0.4273136491950864,0.07745479514763076
1499369105194,-0.9088883802548255,-0.4238956282902264,0.07440299076829149
1499369105210,-0.9088883802548255,-0.4278019378957807,0.07953002212558147
1499369105226,-0.9043717097734034,-0.42877851529716926,0.07415884641794435
1499369105242,-0.907911802853437,-0.4192568856336307,0.08453498130769788
1499369105258,-0.909620813305867,-0.41412985427634075,0.07525749599450648
1499369105274,-0.9060807202258334,-0.40912489509422434,0.07830930037384576
1499369105290,-0.9058365758754863,-0.4126649881742579,0.07672236209658934
1499369105306,-0.9064469367513541,-0.41461814297703503,0.06903181506065437
1499369105322,-0.9091325246051727,-0.4198672465094986,0.07061875333791079
1499369105338,-0.9081559472037841,-0.41571679255359717,0.06378271152819082
1499369105354,-0.9118181124589912,-0.4138857099259936,0.0680552376592658
1499369105370,-0.9132829785610741,-0.4176699473563743,0.06256198977645511
1499369105386,-0.913893339436942,-0.4201113908598457,0.06305027847714939
1499369105402,-0.9097428854810405,-0.42084382391088715,0.06158541237506654
1499369105418,-0.908766308079652,-0.4207217517357136,0.059876401922636546
1499369105434,-0.9098649576562141,-0.4238956282902264,0.06610208285648866
1499369105450,-0.9102311741817348,-0.4185244525825893,0.055725947966735134
1499369105466,-0.912184328984512,-0.4169375143053329,0.05645838101777656
1499369105482,-0.9148699168383305,-0.41889066910811,0.052063782711528006
1499369105498,-0.9153582055390248,-0.41620508125429145,0.050476844434271584
1499369105514,-0.9148699168383305,-0.4152285038529029,0.04596017395284946
1499369105530,-0.9164568551155869,-0.4138857099259936,0.0499885557335773
1499369105546,-0.914747844663157,-0.4138857099259936,0.05413900968947871
1499369105562,-0.9132829785610741,-0.4147402151522086,0.05120927748531301
1499369105578,-0.9119401846341648,-0.4147402151522086,0.04986648355840373
1499369105594,-0.9134050507362477,-0.4126649881742579,0.04742504005493231
1499369105610,-0.9115739681086441,-0.41620508125429145,0.04730296787975874
1499369105626,-0.9119401846341648,-0.4164492256046386,0.050598916609445155
1499369105641,-0.9125505455100327,-0.4169375143053329,0.04608224612802303
1499369105657,-0.9143816281376362,-0.416327153429465,0.046692607003890885
1499369105673,-0.9135271229114212,-0.41669336995498574,0.050476844434271584
1499369105689,-0.9125505455100327,-0.4143739986266879,0.05157549401083372
1499369105705,-0.9129167620355534,-0.41364156557564646,0.050598916609445155
1499369105721,-0.9105973907072555,-0.41657129777981217,0.051819638361180864
1499369105737,-0.9105973907072555,-0.41754787518120073,0.050720988784618726
1499369105753,-0.9093766689555198,-0.4190127412832836,0.051819638361180864
1499369105769,-0.9094987411306934,-0.41705958648050645,0.05218585488670158
1499369105785,-0.9149919890135041,-0.4142519264515143,0.053772793163958
1499369105801,-0.9158464942397191,-0.4140077821011672,0.05108720531013944
1499369105817,-0.9190203707942319,-0.4151064316777293,0.05548180361638799
1499369105833,-0.9159685664148927,-0.4143739986266879,0.05401693751430514
1499369105849,-0.9135271229114212,-0.4147402151522086,0.05267414358739586
1499369105865,-0.911329823758297,-0.41571679255359717,0.053772793163958
1499369105881,-0.9101091020065613,-0.4151064316777293,0.05230792706187515
1499369105897,-0.9098649576562141,-0.41657129777981217,0.04986648355840373
1499369105913,-0.9109636072327763,-0.4160830090791179,0.0499885557335773
1499369105929,-0.9110856794079498,-0.4169375143053329,0.04974441138323016
1499369105945,-0.9132829785610741,-0.41583886472877074,0.04852368963149445
1499369105961,-0.9153582055390248,-0.4159609369039443,0.046814679179064456
1499369105977,-0.9142595559624627,-0.41705958648050645,0.04876783398184159
1499369105993,-0.9127946898603798,-0.41620508125429145,0.049256122682535874
1499369106009,-0.9120622568093384,-0.41571679255359717,0.04864576180666802
1499369106025,-0.9132829785610741,-0.41535057602807646,0.04730296787975874
1499369106041,-0.9127946898603798,-0.4151064316777293,0.04730296787975874
1499369106057,-0.9141374837872891,-0.41412985427634075,0.04510566872663446
1499369106073,-0.9145037003128098,-0.4143739986266879,0.04596017395284946
1499369106089,-0.9152361333638512,-0.4148622873273822,0.04522774090180803
1499369106105,-0.9149919890135041,-0.4151064316777293,0.047913328755626594
1499369106121,-0.9136491950865948,-0.4159609369039443,0.045471885252155175
1499369106137,-0.9136491950865948,-0.4160830090791179,0.04962233920805659
1499369106153,-0.912184328984512,-0.4155947203784236,0.046570534828717314
1499369106169,-0.9124284733348591,-0.4151064316777293,0.04840161745632088
1499369106185,-0.9114518959334705,-0.41376363775082003,0.04693675135423803
1499369106201,-0.9114518959334705,-0.41449607080186146,0.04632639047837017
1499369106217,-0.9118181124589912,-0.41571679255359717,0.04730296787975874
1499369106233,-0.9110856794079498,-0.4160830090791179,0.04571602960250232
1499369106249,-0.9134050507362477,-0.41583886472877074,0.04754711223010588
1499369106265,-0.9124284733348591,-0.41583886472877074,0.04864576180666802
1499369106281,-0.9149919890135041,-0.41461814297703503,0.04888990615701516
1499369106297,-0.9164568551155869,-0.41412985427634075,0.048035400930800165
1499369106313,-0.914747844663157,-0.41449607080186146,0.0470588235294116
1499369106329,-0.9135271229114212,-0.4147402151522086,0.04779125658045302
1499369106345,-0.9123064011596855,-0.4148622873273822,0.047913328755626594
1499369106361,-0.9093766689555198,-0.41498435950255574,0.05108720531013944
1499369106377,-0.9099870298313877,-0.41620508125429145,0.04888990615701516
1499369106393,-0.9141374837872891,-0.41620508125429145,0.04718089570458517
1499369106409,-0.9174334325169755,-0.41376363775082003,0.048157473105973736
1499369106425,-0.9198748760204469,-0.41412985427634075,0.04571602960250232
1499369106441,-0.9180437933928434,-0.41449607080186146,0.04754711223010588
1499369106457,-0.9136491950865948,-0.41461814297703503,0.04644846265354374
1499369106473,-0.9102311741817348,-0.41620508125429145,0.04571602960250232
1499369106489,-0.9076676585030898,-0.4148622873273822,0.04498359655146089
1499369106505,-0.9090104524299991,-0.41461814297703503,0.04742504005493231
1499369106521,-0.9116960402838177,-0.41620508125429145,0.04718089570458517
1499369106537,-0.9142595559624627,-0.4151064316777293,0.04437323567559304
1499369106553,-0.9164568551155869,-0.4173037308308536,0.04779125658045302
1499369106569,-0.9140154116121155,-0.4164492256046386,0.04376287479972518
1499369106585,-0.9149919890135041,-0.418036163881895,0.044251163500419466
1499369106601,-0.913038834210727,-0.4159609369039443,0.04486152437628732
1499369106617,-0.9105973907072555,-0.4143739986266879,0.04473945220111375
1499369106633,-0.9109636072327763,-0.41669336995498574,0.04583810177767589
1499369106649,-0.9114518959334705,-0.4148622873273822,0.04901197833218873
1499369106665,-0.9114518959334705,-0.4155947203784236,0.045593957427328746
1499369106681,-0.913038834210727,-0.41461814297703503,0.04498359655146089
1499369106697,-0.9158464942397191,-0.4133974212252993,0.04449530785076661
1499369106713,-0.9157244220645455,-0.41364156557564646,0.045349813076981604
1499369106729,-0.9158464942397191,-0.4143739986266879,0.04754711223010588
1499369106745,-0.9146257724879834,-0.41449607080186146,0.046692607003890885
1499369106761,-0.9126726176852062,-0.41583886472877074,0.04473945220111375
1499369106777,-0.910475318532082,-0.4143739986266879,0.045471885252155175
1499369106793,-0.9114518959334705,-0.41571679255359717,0.048035400930800165
1499369106809,-0.9124284733348591,-0.4159609369039443,0.04644846265354374
1499369106825,-0.9123064011596855,-0.416327153429465,0.046692607003890885
1499369106841,-0.9140154116121155,-0.41620508125429145,0.04596017395284946
1499369106857,-0.9151140611886777,-0.4152285038529029,0.047913328755626594
1499369106873,-0.9159685664148927,-0.41535057602807646,0.04730296787975874
1499369106889,-0.9146257724879834,-0.41412985427634075,0.047913328755626594
1499369106905,-0.9132829785610741,-0.4138857099259936,0.04583810177767589
1499369106921,-0.9115739681086441,-0.41461814297703503,0.046570534828717314
1499369106937,-0.9114518959334705,-0.41461814297703503,0.046692607003890885
1499369106953,-0.911329823758297,-0.4151064316777293,0.046692607003890885
1499369106969,-0.9134050507362477,-0.4142519264515143,0.04498359655146089
1499369106985,-0.9126726176852062,-0.4142519264515143,0.045471885252155175
1499369107001,-0.9134050507362477,-0.4143739986266879,0.044007019150072324
1499369107017,-0.9165789272907605,-0.4138857099259936,0.04388494697489875
1499369107033,-0.9146257724879834,-0.4143739986266879,0.04510566872663446
1499369107049,-0.9143816281376362,-0.4140077821011672,0.04522774090180803
1499369107065,-0.9136491950865948,-0.41620508125429145,0.04718089570458517
1499369107081,-0.9127946898603798,-0.41620508125429145,0.04608224612802303
1499369107097,-0.9115739681086441,-0.4159609369039443,0.04486152437628732
1499369107113,-0.9109636072327763,-0.41498435950255574,0.0462043183031966
1499369107129,-0.9129167620355534,-0.41461814297703503,0.04693675135423803
1499369107144,-0.9125505455100327,-0.4148622873273822,0.04754711223010588
1499369107160,-0.9141374837872891,-0.41547264820325003,0.0470588235294116
1499369107176,-0.9146257724879834,-0.41364156557564646,0.044129091325245895
1499369107192,-0.9160906385900662,-0.41535057602807646,0.046570534828717314
1499369107208,-0.9134050507362477,-0.4140077821011672,0.045349813076981604
1499369107224,-0.909620813305867,-0.4155947203784236,0.04522774090180803
1499369107240,-0.909620813305867,-0.4169375143053329,0.04461738002594018
1499369107256,-0.9102311741817348,-0.4164492256046386,0.042786297398336615
1499369107272,-0.9115739681086441,-0.41547264820325003,0.04718089570458517
1499369107288,-0.9141374837872891,-0.41498435950255574,0.04449530785076661
1499369107304,-0.9152361333638512,-0.41376363775082003,0.046570534828717314
1499369107320,-0.9145037003128098,-0.41290913252460504,0.04376287479972518
1499369107336,-0.9152361333638512,-0.41290913252460504,0.044007019150072324
1499369107352,-0.9120622568093384,-0.4142519264515143,0.04571602960250232
1499369107368,-0.911329823758297,-0.41620508125429145,0.04596017395284946
1499369107384,-0.9118181124589912,-0.41547264820325003,0.04473945220111375
1499369107400,-0.9126726176852062,-0.41449607080186146,0.04510566872663446
1499369107416,-0.9159685664148927,-0.4147402151522086,0.04449530785076661
1499369107432,-0.9154802777141984,-0.4140077821011672,0.045349813076981604
1499369107448,-0.9126726176852062,-0.4142519264515143,0.0462043183031966
1499369107464,-0.9116960402838177,-0.41754787518120073,0.049256122682535874
1499369107480,-0.9119401846341648,-0.4160830090791179,0.04486152437628732
1499369107496,-0.9116960402838177,-0.4148622873273822,0.04473945220111375
1499369107512,-0.9141374837872891,-0.4140077821011672,0.04522774090180803
1499369107528,-0.9145037003128098,-0.41290913252460504,0.04583810177767589
1499369107544,-0.9125505455100327,-0.4142519264515143,0.04498359655146089
1499369107560,-0.9132829785610741,-0.4143739986266879,0.04608224612802303
1499369107576,-0.9131609063859005,-0.4155947203784236,0.04596017395284946
1499369107592,-0.9116960402838177,-0.41498435950255574,0.04608224612802303
1499369107608,-0.9132829785610741,-0.4159609369039443,0.04571602960250232
1499369107624,-0.9134050507362477,-0.4159609369039443,0.0462043183031966
1499369107640,-0.9132829785610741,-0.4173037308308536,0.04388494697489875
1499369107656,-0.9159685664148927,-0.41449607080186146,0.04437323567559304
1499369107672,-0.9159685664148927,-0.41449607080186146,0.04644846265354374
1499369107688,-0.9151140611886777,-0.4148622873273822,0.04840161745632088
1499369107704,-0.9134050507362477,-0.416327153429465,0.044251163500419466
1499369107720,-0.911329823758297,-0.4152285038529029,0.04510566872663446
1499369107736,-0.9126726176852062,-0.4159609369039443,0.046692607003890885
1499369107752,-0.9124284733348591,-0.4151064316777293,0.04730296787975874
1499369107768,-0.9116960402838177,-0.4126649881742579,0.04864576180666802
1499369107784,-0.9126726176852062,-0.41412985427634075,0.04693675135423803
1499369107800,-0.9154802777141984,-0.41327534905012575,0.044007019150072324
1499369107816,-0.9151140611886777,-0.41461814297703503,0.04046692607003877
1499369107832,-0.9142595559624627,-0.4131532768749522,0.04364080262455161
1499369107848,-0.9148699168383305,-0.4147402151522086,0.04718089570458517
1499369107864,-0.9119401846341648,-0.4143739986266879,0.04473945220111375
1499369107880,-0.9090104524299991,-0.4160830090791179,0.045349813076981604
1499369107896,-0.9094987411306934,-0.4133974212252993,0.044007019150072324
1499369107912,-0.9118181124589912,-0.41412985427634075,0.04449530785076661
1499369107928,-0.9164568551155869,-0.41376363775082003,0.045593957427328746
1499369107944,-0.9170672159914548,-0.41327534905012575,0.04608224612802303
1499369107960,-0.9170672159914548,-0.4125429159990843,0.04510566872663446
1499369107976,-0.9140154116121155,-0.41376363775082003,0.04486152437628732
1499369107992,-0.9123064011596855,-0.41449607080186146,0.04522774090180803
1499369108008,-0.910475318532082,-0.4152285038529029,0.04486152437628732
1499369108024,-0.9110856794079498,-0.4152285038529029,0.04583810177767589
1499369108040,-0.9124284733348591,-0.4140077821011672,0.04205386434729519
1499369108056,-0.9132829785610741,-0.41498435950255574,0.043030441748683756
1499369108072,-0.9160906385900662,-0.41412985427634075,0.044007019150072324
1499369108088,-0.9152361333638512,-0.41461814297703503,0.04510566872663446
1499369108104,-0.9141374837872891,-0.4148622873273822,0.04522774090180803
1499369108120,-0.9131609063859005,-0.4160830090791179,0.04364080262455161
1499369108136,-0.9126726176852062,-0.4140077821011672,0.04510566872663446
1499369108152,-0.9115739681086441,-0.41535057602807646,0.04339665827420447
1499369108168,-0.9127946898603798,-0.41449607080186146,0.04510566872663446
1499369108184,-0.9149919890135041,-0.41278706034943147,0.044007019150072324
1499369108200,-0.9154802777141984,-0.4130312046997786,0.04437323567559304
1499369108216,-0.9135271229114212,-0.4148622873273822,0.04449530785076661
1499369108232,-0.9107194628824291,-0.4152285038529029,0.04632639047837017
1499369108248,-0.9114518959334705,-0.41571679255359717,0.045471885252155175
1499369108264,-0.9125505455100327,-0.41449607080186146,0.04522774090180803
1499369108280,-0.9153582055390248,-0.4147402151522086,0.04583810177767589
1499369108296,-0.9167009994659341,-0.4130312046997786,0.047913328755626594
1499369108312,-0.9157244220645455,-0.41620508125429145,0.04632639047837017
1499369108328,-0.9148699168383305,-0.41620508125429145,0.04742504005493231
1499369108344,-0.9124284733348591,-0.41535057602807646,0.04498359655146089
1499369108360,-0.9116960402838177,-0.4152285038529029,0.04596017395284946
1499369108376,-0.9131609063859005,-0.41571679255359717,0.04608224612802303
1499369108392,-0.9134050507362477,-0.4147402151522086,0.04571602960250232
1499369108408,-0.9134050507362477,-0.41547264820325003,0.04449530785076661
1499369108424,-0.9142595559624627,-0.4140077821011672,0.04254215304798947
1499369108440,-0.9129167620355534,-0.41376363775082003,0.045593957427328746
1499369108456,-0.9131609063859005,-0.4155947203784236,0.046814679179064456
1499369108472,-0.9123064011596855,-0.41547264820325003,0.04644846265354374
1499369108488,-0.910475318532082,-0.4147402151522086,0.04351873044937804
1499369108504,-0.9120622568093384,-0.41327534905012575,0.044007019150072324
1499369108520,-0.9136491950865948,-0.4155947203784236,0.04473945220111375
1499369108536,-0.913893339436942,-0.4147402151522086,0.0462043183031966
1499369108552,-0.9140154116121155,-0.4138857099259936,0.04437323567559304
1499369108568,-0.9149919890135041,-0.41376363775082003,0.046814679179064456
1499369108584,-0.9126726176852062,-0.41364156557564646,0.04522774090180803
1499369108600,-0.9125505455100327,-0.41327534905012575,0.04608224612802303
1499369108616,-0.9131609063859005,-0.41498435950255574,0.0470588235294116
1499369108632,-0.9141374837872891,-0.4148622873273822,0.04522774090180803
1499369108648,-0.913893339436942,-0.4152285038529029,0.04449530785076661
1499369108664,-0.9126726176852062,-0.4160830090791179,0.04376287479972518
1499369108680,-0.9134050507362477,-0.4142519264515143,0.04254215304798947
1499369108696,-0.9125505455100327,-0.4143739986266879,0.04522774090180803
1499369108712,-0.9125505455100327,-0.4148622873273822,0.044129091325245895
1499369108728,-0.9141374837872891,-0.4142519264515143,0.044129091325245895
1499369108744,-0.9151140611886777,-0.4159609369039443,0.046814679179064456
1499369108760,-0.9145037003128098,-0.4148622873273822,0.04461738002594018
1499369108775,-0.9160906385900662,-0.41449607080186146,0.044251163500419466
1499369108791,-0.9149919890135041,-0.41327534905012575,0.04376287479972518
1499369108807,-0.9129167620355534,-0.4152285038529029,0.045349813076981604
1499369108823,-0.9118181124589912,-0.41449607080186146,0.044251163500419466
1499369108839,-0.9124284733348591,-0.41412985427634075,0.04449530785076661
1499369108855,-0.9141374837872891,-0.4148622873273822,0.04229800869764233
1499369108871,-0.9136491950865948,-0.4140077821011672,0.04583810177767589
1499369108887,-0.9148699168383305,-0.41461814297703503,0.04632639047837017
1499369108903,-0.9141374837872891,-0.41376363775082003,0.04583810177767589
1499369108919,-0.9126726176852062,-0.41547264820325003,0.04376287479972518
1499369108935,-0.9116960402838177,-0.41290913252460504,0.04608224612802303
1499369108951,-0.9131609063859005,-0.4148622873273822,0.04693675135423803
1499369108967,-0.9145037003128098,-0.41412985427634075,0.04742504005493231
1499369108983,-0.9129167620355534,-0.41376363775082003,0.04510566872663446
1499369108999,-0.9132829785610741,-0.41571679255359717,0.0424200808728159
1499369109015,-0.9129167620355534,-0.41571679255359717,0.04229800869764233
1499369109031,-0.9131609063859005,-0.4160830090791179,0.04608224612802303
1499369109047,-0.9123064011596855,-0.4151064316777293,0.046692607003890885
1499369109063,-0.9126726176852062,-0.4151064316777293,0.045593957427328746
1499369109079,-0.913893339436942,-0.41461814297703503,0.04376287479972518
1499369109095,-0.9142595559624627,-0.4140077821011672,0.0432745860990309
1499369109111,-0.9152361333638512,-0.4133974212252993,0.04522774090180803
1499369109127,-0.914747844663157,-0.41205462729839004,0.0432745860990309
1499369109143,-0.9131609063859005,-0.4135194934004729,0.04779125658045302
1499369109159,-0.9129167620355534,-0.41327534905012575,0.0462043183031966
1499369109175,-0.9136491950865948,-0.4155947203784236,0.04339665827420447
1499369109191,-0.9131609063859005,-0.41364156557564646,0.0462043183031966
1499369109207,-0.913893339436942,-0.4142519264515143,0.04632639047837017
1499369109223,-0.9143816281376362,-0.41461814297703503,0.04596017395284946
1499369109239,-0.913893339436942,-0.41449607080186146,0.04498359655146089
1499369109255,-0.9135271229114212,-0.41583886472877074,0.04571602960250232
1499369109271,-0.9136491950865948,-0.41571679255359717,0.044007019150072324
1499369109287,-0.9131609063859005,-0.4155947203784236,0.044007019150072324
1499369109303,-0.9125505455100327,-0.41412985427634075,0.04180971999694805
1499369109319,-0.9137712672617684,-0.41583886472877074,0.04449530785076661
1499369109335,-0.913038834210727,-0.4151064316777293,0.04486152437628732
1499369109351,-0.9129167620355534,-0.41583886472877074,0.044007019150072324
1499369109367,-0.9136491950865948,-0.41535057602807646,0.04437323567559304
1499369109383,-0.9145037003128098,-0.41449607080186146,0.0432745860990309
1499369109399,-0.9137712672617684,-0.4142519264515143,0.04376287479972518
1499369109415,-0.9146257724879834,-0.4140077821011672,0.044251163500419466
1499369109431,-0.9126726176852062,-0.4143739986266879,0.04510566872663446
1499369109447,-0.9123064011596855,-0.4142519264515143,0.04437323567559304
1499369109463,-0.914747844663157,-0.41290913252460504,0.04364080262455161
1499369109479,-0.9142595559624627,-0.4143739986266879,0.046570534828717314
1499369109495,-0.9151140611886777,-0.4147402151522086,0.045593957427328746
1499369109511,-0.9126726176852062,-0.41449607080186146,0.045471885252155175
1499369109527,-0.9137712672617684,-0.4152285038529029,0.04486152437628732
1499369109543,-0.9132829785610741,-0.4151064316777293,0.04486152437628732
1499369109559,-0.9146257724879834,-0.4130312046997786,0.04608224612802303
1499369109575,-0.913893339436942,-0.4133974212252993,0.0470588235294116
1499369109591,-0.9134050507362477,-0.41449607080186146,0.042908369573510186
1499369109607,-0.9135271229114212,-0.4143739986266879,0.04461738002594018
1499369109623,-0.9116960402838177,-0.41461814297703503,0.04583810177767589
1499369109639,-0.9115739681086441,-0.416327153429465,0.044129091325245895
1499369109655,-0.9114518959334705,-0.41669336995498574,0.0462043183031966
1499369109671,-0.9132829785610741,-0.41583886472877074,0.04522774090180803
1499369109687,-0.9137712672617684,-0.4147402151522086,0.0462043183031966
1499369109703,-0.9167009994659341,-0.41376363775082003,0.043030441748683756
1499369109719,-0.9149919890135041,-0.4140077821011672,0.04510566872663446
1499369109735,-0.9132829785610741,-0.4148622873273822,0.04351873044937804
1499369109751,-0.9137712672617684,-0.4133974212252993,0.04351873044937804
1499369109767,-0.9134050507362477,-0.41461814297703503,0.044251163500419466
1499369109783,-0.913038834210727,-0.4135194934004729,0.042908369573510186
1499369109799,-0.9136491950865948,-0.41242084382391075,0.04498359655146089
1499369109815,-0.9157244220645455,-0.4125429159990843,0.04449530785076661
1499369109831,-0.9176775768673227,-0.4122987716487372,0.042786297398336615
1499369109847,-0.9190203707942319,-0.41278706034943147,0.04473945220111375
1499369109863,-0.9164568551155869,-0.41376363775082003,0.04461738002594018
1499369109879,-0.9134050507362477,-0.4122987716487372,0.0432745860990309
1499369109895,-0.9119401846341648,-0.41327534905012575,0.04205386434729519
1499369109911,-0.9125505455100327,-0.4147402151522086,0.044129091325245895
1499369109927,-0.913893339436942,-0.41376363775082003,0.04388494697489875
1499369109943,-0.9135271229114212,-0.4121766994735636,0.043030441748683756
1499369109959,-0.9157244220645455,-0.41193255512321647,0.04351873044937804
1499369109975,-0.9180437933928434,-0.41278706034943147,0.043030441748683756
1499369109991,-0.9164568551155869,-0.41242084382391075,0.042786297398336615
1499369110007,-0.9131609063859005,-0.4147402151522086,0.044251163500419466
1499369110023,-0.9123064011596855,-0.4147402151522086,0.042908369573510186
1499369110039,-0.9115739681086441,-0.41278706034943147,0.04205386434729519
1499369110055,-0.9125505455100327,-0.4121766994735636,0.03973449301899734
1499369110071,-0.915602349889372,-0.4122987716487372,0.0432745860990309
1499369110087,-0.9187762264438848,-0.4105897611963072,0.0432745860990309
1499369110103,-0.9188982986190584,-0.4126649881742579,0.04473945220111375
1499369110119,-0.9153582055390248,-0.41193255512321647,0.0424200808728159
1499369110135,-0.9135271229114212,-0.41168841077286933,0.042908369573510186
1499369110151,-0.913038834210727,-0.41364156557564646,0.04351873044937804
1499369110167,-0.9118181124589912,-0.41498435950255574,0.0462043183031966
1499369110183,-0.9124284733348591,-0.4140077821011672,0.042908369573510186
1499369110199,-0.913893339436942,-0.41547264820325003,0.04510566872663446
1499369110215,-0.914747844663157,-0.4138857099259936,0.0462043183031966
1499369110231,-0.9146257724879834,-0.4143739986266879,0.045593957427328746
1499369110247,-0.913893339436942,-0.41364156557564646,0.04742504005493231
1499369110263,-0.9140154116121155,-0.41376363775082003,0.04754711223010588
1499369110279,-0.913893339436942,-0.4142519264515143,0.04571602960250232
1499369110295,-0.9131609063859005,-0.41376363775082003,0.04596017395284946
1499369110311,-0.9126726176852062,-0.41376363775082003,0.04596017395284946
1499369110327,-0.9136491950865948,-0.41278706034943147,0.04339665827420447
1499369110342,-0.9164568551155869,-0.4114442664225222,0.044007019150072324
1499369110358,-0.9141374837872891,-0.4102235446707865,0.042908369573510186
1499369110374,-0.914747844663157,-0.4125429159990843,0.045349813076981604
1499369110390,-0.9149919890135041,-0.41278706034943147,0.04449530785076661
1499369110406,-0.9123064011596855,-0.4138857099259936,0.04718089570458517
1499369110422,-0.9129167620355534,-0.4140077821011672,0.045593957427328746
1499369110438,-0.9132829785610741,-0.41327534905012575,0.042908369573510186
1499369110454,-0.9137712672617684,-0.4135194934004729,0.045593957427328746
1499369110470,-0.9141374837872891,-0.4133974212252993,0.04644846265354374
1499369110486,-0.9129167620355534,-0.4133974212252993,0.045471885252155175
1499369110502,-0.9124284733348591,-0.4130312046997786,0.046814679179064456
1499369110518,-0.9136491950865948,-0.41461814297703503,0.0432745860990309
1499369110534,-0.913893339436942,-0.4131532768749522,0.04510566872663446
1499369110550,-0.9132829785610741,-0.41156633859769576,0.044007019150072324
1499369110566,-0.9152361333638512,-0.4135194934004729,0.04132143129625376
1499369110582,-0.9145037003128098,-0.41278706034943147,0.04132143129625376
1499369110598,-0.9136491950865948,-0.41278706034943147,0.044007019150072324
1499369110614,-0.9132829785610741,-0.4122987716487372,0.043030441748683756
1499369110630,-0.9151140611886777,-0.4121766994735636,0.042908369573510186
1499369110646,-0.9167009994659341,-0.4121766994735636,0.04473945220111375
1499369110662,-0.9184100099183641,-0.41278706034943147,0.04608224612802303
1499369110678,-0.9157244220645455,-0.4152285038529029,0.04376287479972518
1499369110694,-0.911329823758297,-0.4138857099259936,0.045349813076981604
1499369110710,-0.9110856794079498,-0.41376363775082003,0.04718089570458517
1499369110726,-0.9110856794079498,-0.4133974212252993,0.04632639047837017
1499369110742,-0.9135271229114212,-0.4121766994735636,0.043030441748683756
1499369110758,-0.9153582055390248,-0.4126649881742579,0.04071107042038591
1499369110774,-0.9164568551155869,-0.41278706034943147,0.03924620431830306
1499369110790,-0.9164568551155869,-0.4143739986266879,0.04229800869764233
1499369110806,-0.9151140611886777,-0.41412985427634075,0.044251163500419466
1499369110822,-0.9126726176852062,-0.4147402151522086,0.042908369573510186
1499369110838,-0.9116960402838177,-0.4131532768749522,0.04461738002594018
1499369110854,-0.9123064011596855,-0.41364156557564646,0.0462043183031966
1499369110870,-0.9142595559624627,-0.4131532768749522,0.04437323567559304
1499369110886,-0.9143816281376362,-0.4126649881742579,0.0470588235294116
1499369110902,-0.9159685664148927,-0.41290913252460504,0.04608224612802303
1499369110918,-0.9146257724879834,-0.41290913252460504,0.04473945220111375
1499369110934,-0.9153582055390248,-0.4126649881742579,0.045471885252155175
1499369110950,-0.913893339436942,-0.41364156557564646,0.04449530785076661
1499369110966,-0.9131609063859005,-0.4135194934004729,0.042786297398336615
1499369110982,-0.9159685664148927,-0.4126649881742579,0.04498359655146089
1499369110998,-0.9149919890135041,-0.4138857099259936,0.045593957427328746
1499369111014,-0.9146257724879834,-0.4148622873273822,0.04315251392385733
1499369111030,-0.9148699168383305,-0.41449607080186146,0.04486152437628732
1499369111046,-0.9137712672617684,-0.41449607080186146,0.044129091325245895
1499369111062,-0.9146257724879834,-0.4133974212252993,0.04364080262455161
1499369111078,-0.9140154116121155,-0.41364156557564646,0.044251163500419466
1499369111094,-0.9154802777141984,-0.4131532768749522,0.04180971999694805
1499369111110,-0.9159685664148927,-0.4126649881742579,0.04388494697489875
1499369111126,-0.9151140611886777,-0.41278706034943147,0.0424200808728159
1499369111142,-0.9145037003128098,-0.41168841077286933,0.04449530785076661
1499369111158,-0.9134050507362477,-0.41327534905012575,0.044129091325245895
1499369111174,-0.911329823758297,-0.4135194934004729,0.04229800869764233
1499369111190,-0.9115739681086441,-0.41205462729839004,0.04632639047837017
1499369111206,-0.9151140611886777,-0.4118104829480429,0.042664225223163044
1499369111222,-0.9171892881666284,-0.41193255512321647,0.0470588235294116
1499369111238,-0.9179217212176698,-0.41193255512321647,0.04510566872663446
1499369111254,-0.9164568551155869,-0.41461814297703503,0.04339665827420447
1499369111270,-0.9134050507362477,-0.41376363775082003,0.041565575646600905
1499369111286,-0.912184328984512,-0.41364156557564646,0.04107728694590662
1499369111302,-0.913038834210727,-0.4133974212252993,0.045349813076981604
1499369111318,-0.9132829785610741,-0.41193255512321647,0.045349813076981604
1499369111334,-0.9141374837872891,-0.4126649881742579,0.04376287479972518
1499369111350,-0.9163347829404134,-0.41461814297703503,0.04461738002594018
1499369111366,-0.915602349889372,-0.4148622873273822,0.042908369573510186
1499369111382,-0.9136491950865948,-0.4143739986266879,0.04388494697489875
1499369111398,-0.9118181124589912,-0.41583886472877074,0.044251163500419466
1499369111414,-0.9120622568093384,-0.4142519264515143,0.04498359655146089
1499369111430,-0.9135271229114212,-0.4125429159990843,0.04180971999694805
1499369111446,-0.9149919890135041,-0.41168841077286933,0.04498359655146089
1499369111462,-0.9159685664148927,-0.4110780498970015,0.044007019150072324
1499369111478,-0.9162127107652398,-0.41168841077286933,0.04583810177767589
1499369111494,-0.9162127107652398,-0.4121766994735636,0.04205386434729519
1499369111510,-0.913893339436942,-0.41242084382391075,0.04388494697489875
1499369111526,-0.9131609063859005,-0.4130312046997786,0.04522774090180803
1499369111542,-0.9118181124589912,-0.4140077821011672,0.04754711223010588
1499369111558,-0.9118181124589912,-0.4142519264515143,0.04608224612802303
1499369111574,-0.9151140611886777,-0.4133974212252993,0.04449530785076661
1499369111590,-0.9163347829404134,-0.41449607080186146,0.04364080262455161
1499369111606,-0.9175555046921491,-0.4135194934004729,0.045471885252155175
1499369111622,-0.9151140611886777,-0.41412985427634075,0.045349813076981604
1499369111638,-0.9123064011596855,-0.4151064316777293,0.04339665827420447
1499369111654,-0.9127946898603798,-0.4147402151522086,0.044129091325245895
1499369111670,-0.9115739681086441,-0.4130312046997786,0.04632639047837017
1499369111686,-0.9120622568093384,-0.4125429159990843,0.04522774090180803
1499369111702,-0.9145037003128098,-0.41242084382391075,0.04364080262455161
1499369111718,-0.9167009994659341,-0.4118104829480429,0.0432745860990309
1499369111734,-0.9142595559624627,-0.41278706034943147,0.04583810177767589
1499369111750,-0.9134050507362477,-0.41327534905012575,0.045471885252155175
1499369111766,-0.9134050507362477,-0.4130312046997786,0.04473945220111375
1499369111782,-0.9145037003128098,-0.4121766994735636,0.044129091325245895
1499369111798,-0.9168230716411077,-0.4121766994735636,0.04364080262455161
1499369111814,-0.9159685664148927,-0.4135194934004729,0.045471885252155175
1499369111830,-0.9163347829404134,-0.41412985427634075,0.042664225223163044
1499369111846,-0.9142595559624627,-0.4130312046997786,0.043030441748683756
1499369111862,-0.9129167620355534,-0.41376363775082003,0.0432745860990309
1499369111878,-0.9136491950865948,-0.41327534905012575,0.04388494697489875
1499369111894,-0.9137712672617684,-0.41290913252460504,0.04510566872663446
1499369111910,-0.9153582055390248,-0.41278706034943147,0.04742504005493231
1499369111925,-0.9153582055390248,-0.4125429159990843,0.04229800869764233
1499369111941,-0.9157244220645455,-0.41205462729839004,0.0432745860990309
1499369111957,-0.914747844663157,-0.41376363775082003,0.04522774090180803
1499369111973,-0.9126726176852062,-0.4160830090791179,0.04217593652246876
1499369111989,-0.9125505455100327,-0.4138857099259936,0.04180971999694805
1499369112005,-0.9141374837872891,-0.4125429159990843,0.04229800869764233
1499369112021,-0.9154802777141984,-0.4118104829480429,0.04193179217212162
1499369112037,-0.9165789272907605,-0.41205462729839004,0.044129091325245895
1499369112053,-0.9162127107652398,-0.4118104829480429,0.04095521477073305
1499369112069,-0.9151140611886777,-0.41083390554665433,0.04083314259555948
1499369112085,-0.9119401846341648,-0.4122987716487372,0.044251163500419466
1499369112101,-0.9137712672617684,-0.4126649881742579,0.04315251392385733
1499369112117,-0.913038834210727,-0.41327534905012575,0.04461738002594018
1499369112133,-0.9136491950865948,-0.41412985427634075,0.0462043183031966
1499369112149,-0.9136491950865948,-0.41412985427634075,0.042908369573510186
1499369112165,-0.9143816281376362,-0.4133974212252993,0.04437323567559304
1499369112181,-0.9129167620355534,-0.4135194934004729,0.04217593652246876
1499369112197,-0.9137712672617684,-0.41376363775082003,0.04522774090180803
1499369112213,-0.9164568551155869,-0.4125429159990843,0.04388494697489875
1499369112229,-0.9141374837872891,-0.4142519264515143,0.04229800869764233
1499369112245,-0.9137712672617684,-0.41278706034943147,0.04229800869764233
1499369112261,-0.913038834210727,-0.41242084382391075,0.042908369573510186
1499369112277,-0.9135271229114212,-0.4133974212252993,0.042908369573510186
1499369112293,-0.9124284733348591,-0.41278706034943147,0.044251163500419466
1499369112309,-0.911329823758297,-0.4131532768749522,0.04364080262455161
1499369112325,-0.9131609063859005,-0.4138857099259936,0.04437323567559304
1499369112341,-0.9149919890135041,-0.41290913252460504,0.04339665827420447
1499369112357,-0.9179217212176698,-0.41327534905012575,0.0424200808728159
1499369112373,-0.9170672159914548,-0.4140077821011672,0.045593957427328746
1499369112389,-0.9140154116121155,-0.4142519264515143,0.04339665827420447
1499369112405,-0.912184328984512,-0.4142519264515143,0.042908369573510186
1499369112421,-0.9120622568093384,-0.4143739986266879,0.044251163500419466
1499369112437,-0.9118181124589912,-0.41364156557564646,0.041443503471427334
1499369112453,-0.9145037003128098,-0.4135194934004729,0.042664225223163044
1499369112469,-0.9167009994659341,-0.4142519264515143,0.04217593652246876
1499369112485,-0.9173113603418019,-0.41168841077286933,0.04229800869764233
1499369112501,-0.9157244220645455,-0.41290913252460504,0.04229800869764233
1499369112517,-0.9136491950865948,-0.4125429159990843,0.04364080262455161
1499369112533,-0.9124284733348591,-0.4140077821011672,0.044251163500419466
1499369112549,-0.9108415350576027,-0.41449607080186146,0.04376287479972518
1499369112565,-0.9124284733348591,-0.41449607080186146,0.044251163500419466
1499369112581,-0.9129167620355534,-0.4121766994735636,0.04473945220111375
1499369112597,-0.9164568551155869,-0.41205462729839004,0.04339665827420447
1499369112613,-0.9162127107652398,-0.4114442664225222,0.04058899824521234
1499369112629,-0.9158464942397191,-0.4110780498970015,0.04486152437628732
1499369112645,-0.9158464942397191,-0.4118104829480429,0.04376287479972518
1499369112661,-0.9124284733348591,-0.4131532768749522,0.04449530785076661
1499369112677,-0.9129167620355534,-0.4126649881742579,0.043030441748683756
1499369112693,-0.9131609063859005,-0.4135194934004729,0.044129091325245895
1499369112709,-0.9149919890135041,-0.4138857099259936,0.04364080262455161
1499369112725,-0.9151140611886777,-0.41193255512321647,0.04376287479972518
1499369112741,-0.914747844663157,-0.41327534905012575,0.04376287479972518
1499369112757,-0.9149919890135041,-0.41242084382391075,0.041443503471427334
1499369112773,-0.9140154116121155,-0.4126649881742579,0.04510566872663446
1499369112789,-0.9136491950865948,-0.4122987716487372,0.043030441748683756
1499369112805,-0.9137712672617684,-0.41242084382391075,0.04571602960250232
1499369112821,-0.9148699168383305,-0.4122987716487372,0.04254215304798947
1499369112837,-0.9165789272907605,-0.40997940032043934,0.044251163500419466
1499369112853,-0.9157244220645455,-0.41120012207217504,0.04388494697489875
1499369112869,-0.915602349889372,-0.4122987716487372,0.044251163500419466
1499369112885,-0.9152361333638512,-0.41205462729839004,0.04083314259555948
1499369112901,-0.9145037003128098,-0.41364156557564646,0.04071107042038591
1499369112917,-0.9158464942397191,-0.41168841077286933,0.04107728694590662
1499369112933,-0.9164568551155869,-0.41193255512321647,0.04119935912108019
1499369112949,-0.9173113603418019,-0.41290913252460504,0.04254215304798947
1499369112965,-0.9160906385900662,-0.4133974212252993,0.041565575646600905
1499369112981,-0.9146257724879834,-0.4135194934004729,0.04388494697489875
1499369112997,-0.9115739681086441,-0.4126649881742579,0.045471885252155175
1499369113013,-0.9135271229114212,-0.41193255512321647,0.04351873044937804
1499369113029,-0.9143816281376362,-0.41156633859769576,0.04364080262455161
1499369113045,-0.9152361333638512,-0.41205462729839004,0.04046692607003877
1499369113061,-0.9157244220645455,-0.4118104829480429,0.041565575646600905
1499369113077,-0.9153582055390248,-0.4104676890211336,0.04376287479972518
1499369113093,-0.9157244220645455,-0.4126649881742579,0.04437323567559304
1499369113109,-0.9143816281376362,-0.4125429159990843,0.043030441748683756
1499369113125,-0.9135271229114212,-0.4131532768749522,0.04095521477073305
1499369113141,-0.9137712672617684,-0.4133974212252993,0.04254215304798947
1499369113157,-0.9151140611886777,-0.4130312046997786,0.03961242084382377
1499369113173,-0.9163347829404134,-0.4125429159990843,0.04229800869764233
1499369113189,-0.9154802777141984,-0.4122987716487372,0.043030441748683756
1499369113205,-0.9154802777141984,-0.4131532768749522,0.043030441748683756
1499369113221,-0.9149919890135041,-0.4130312046997786,0.04132143129625376
1499369113237,-0.9140154116121155,-0.4135194934004729,0.04132143129625376
1499369113253,-0.9136491950865948,-0.41193255512321647,0.04217593652246876
1499369113269,-0.9145037003128098,-0.4114442664225222,0.04180971999694805
1499369113285,-0.9152361333638512,-0.41168841077286933,0.04254215304798947
1499369113301,-0.9142595559624627,-0.4133974212252993,0.04254215304798947
1499369113317,-0.9154802777141984,-0.41120012207217504,0.04180971999694805
1499369113333,-0.9153582055390248,-0.4113221942473486,0.04461738002594018
1499369113349,-0.9141374837872891,-0.4118104829480429,0.04119935912108019
1499369113365,-0.915602349889372,-0.41205462729839004,0.04229800869764233
1499369113381,-0.9126726176852062,-0.41278706034943147,0.04351873044937804
1499369113397,-0.9134050507362477,-0.41278706034943147,0.04071107042038591
1499369113413,-0.9134050507362477,-0.4118104829480429,0.04119935912108019
1499369113429,-0.9170672159914548,-0.4113221942473486,0.042664225223163044
1499369113445,-0.915602349889372,-0.4122987716487372,0.0424200808728159
1499369113460,-0.914747844663157,-0.41242084382391075,0.04229800869764233
1499369113476,-0.9140154116121155,-0.41290913252460504,0.040344853894865196
1499369113492,-0.9125505455100327,-0.4114442664225222,0.04058899824521234
1499369113508,-0.9149919890135041,-0.41034561684596005,0.04071107042038591
1499369113524,-0.9152361333638512,-0.4096131837949186,0.04437323567559304
1499369113540,-0.9182879377431905,-0.41083390554665433,0.043030441748683756
1499369113556,-0.9171892881666284,-0.4114442664225222,0.04364080262455161
1499369113572,-0.9159685664148927,-0.41193255512321647,0.0424200808728159
1499369113588,-0.9134050507362477,-0.41156633859769576,0.045349813076981604
1499369113604,-0.9145037003128098,-0.4110780498970015,0.044007019150072324
1499369113620,-0.9142595559624627,-0.4131532768749522,0.04388494697489875
1499369113636,-0.9132829785610741,-0.41168841077286933,0.0432745860990309
1499369113652,-0.9152361333638512,-0.41120012207217504,0.04437323567559304
1499369113668,-0.9142595559624627,-0.4121766994735636,0.041565575646600905
1499369113684,-0.9135271229114212,-0.41327534905012575,0.045471885252155175
1499369113700,-0.914747844663157,-0.41242084382391075,0.04522774090180803
1499369113716,-0.9129167620355534,-0.4138857099259936,0.04388494697489875
1499369113732,-0.9137712672617684,-0.4125429159990843,0.042908369573510186
1499369113748,-0.9152361333638512,-0.41327534905012575,0.04437323567559304
1499369113764,-0.9142595559624627,-0.41205462729839004,0.04473945220111375
1499369113780,-0.915602349889372,-0.41278706034943147,0.042786297398336615
1499369113796,-0.9137712672617684,-0.4126649881742579,0.04351873044937804
1499369113812,-0.9142595559624627,-0.4125429159990843,0.044129091325245895
1499369113828,-0.9140154116121155,-0.41205462729839004,0.04510566872663446
1499369113844,-0.9149919890135041,-0.41083390554665433,0.042664225223163044
1499369113860,-0.9158464942397191,-0.4113221942473486,0.04205386434729519
1499369113876,-0.9157244220645455,-0.4109559777218279,0.042908369573510186
1499369113892,-0.9140154116121155,-0.4125429159990843,0.04498359655146089
1499369113908,-0.9143816281376362,-0.4125429159990843,0.044007019150072324
1499369113924,-0.9134050507362477,-0.4122987716487372,0.042908369573510186
1499369113940,-0.9153582055390248,-0.4126649881742579,0.044007019150072324
1499369113956,-0.913893339436942,-0.4126649881742579,0.04193179217212162
1499369113972,-0.9151140611886777,-0.4121766994735636,0.04364080262455161
1499369113988,-0.913893339436942,-0.4122987716487372,0.041687647821774476
1499369114004,-0.9135271229114212,-0.4114442664225222,0.04376287479972518
1499369114020,-0.9146257724879834,-0.4113221942473486,0.0432745860990309
1499369114036,-0.9159685664148927,-0.4104676890211336,0.04339665827420447
1499369114052,-0.9162127107652398,-0.41193255512321647,0.04229800869764233
1499369114068,-0.9158464942397191,-0.41242084382391075,0.039124132143129486
1499369114084,-0.915602349889372,-0.41168841077286933,0.04193179217212162
1499369114100,-0.9160906385900662,-0.4126649881742579,0.04315251392385733
1499369114116,-0.9143816281376362,-0.4143739986266879,0.044251163500419466
1499369114132,-0.9141374837872891,-0.4131532768749522,0.04644846265354374
1499369114148,-0.9134050507362477,-0.41327534905012575,0.04473945220111375
1499369114164,-0.9129167620355534,-0.4133974212252993,0.04315251392385733
1499369114180,-0.9131609063859005,-0.41205462729839004,0.04376287479972518
1499369114196,-0.9143816281376362,-0.41168841077286933,0.042908369573510186
1499369114212,-0.9164568551155869,-0.4105897611963072,0.044251163500419466
1499369114228,-0.9168230716411077,-0.4110780498970015,0.03997863736934448
1499369114244,-0.915602349889372,-0.41242084382391075,0.039124132143129486
1499369114260,-0.9146257724879834,-0.41290913252460504,0.03961242084382377
1499369114276,-0.9115739681086441,-0.4125429159990843,0.04364080262455161
1499369114292,-0.9110856794079498,-0.4140077821011672,0.04510566872663446
1499369114308,-0.913893339436942,-0.4131532768749522,0.04339665827420447
1499369114324,-0.9149919890135041,-0.4133974212252993,0.04132143129625376
1499369114340,-0.9159685664148927,-0.41193255512321647,0.04095521477073305
1499369114356,-0.9167009994659341,-0.4118104829480429,0.04364080262455161
1499369114372,-0.9160906385900662,-0.4114442664225222,0.042786297398336615
1499369114388,-0.9146257724879834,-0.4113221942473486,0.0432745860990309
1499369114404,-0.9123064011596855,-0.41156633859769576,0.041443503471427334
1499369114420,-0.9120622568093384,-0.41242084382391075,0.04205386434729519
1499369114436,-0.9146257724879834,-0.4131532768749522,0.04473945220111375
1499369114452,-0.9143816281376362,-0.41327534905012575,0.04376287479972518
1499369114468,-0.9154802777141984,-0.4130312046997786,0.045593957427328746
1499369114484,-0.9145037003128098,-0.4140077821011672,0.04510566872663446
1499369114500,-0.9142595559624627,-0.41376363775082003,0.045593957427328746
1499369114516,-0.9137712672617684,-0.41278706034943147,0.04437323567559304
1499369114532,-0.9142595559624627,-0.41364156557564646,0.04608224612802303
1499369114548,-0.9148699168383305,-0.41376363775082003,0.0424200808728159
1499369114564,-0.9145037003128098,-0.41278706034943147,0.04107728694590662
1499369114580,-0.9164568551155869,-0.4130312046997786,0.04193179217212162
1499369114596,-0.914747844663157,-0.4113221942473486,0.039124132143129486
1499369114612,-0.9168230716411077,-0.41168841077286933,0.040344853894865196
1499369114628,-0.9145037003128098,-0.4110780498970015,0.04058899824521234
1499369114644,-0.9137712672617684,-0.4122987716487372,0.040222781719691625
1499369114660,-0.9115739681086441,-0.4126649881742579,0.04364080262455161
1499369114676,-0.9149919890135041,-0.4130312046997786,0.04388494697489875
1499369114692,-0.9167009994659341,-0.41364156557564646,0.045349813076981604
1499369114708,-0.9191424429694055,-0.41290913252460504,0.04498359655146089
1499369114724,-0.9167009994659341,-0.41278706034943147,0.044129091325245895
1499369114740,-0.9142595559624627,-0.4143739986266879,0.040222781719691625
1499369114756,-0.9129167620355534,-0.4135194934004729,0.04254215304798947
1499369114772,-0.9103532463569084,-0.4122987716487372,0.04388494697489875
1499369114788,-0.9134050507362477,-0.41278706034943147,0.045471885252155175
1499369114804,-0.9136491950865948,-0.4118104829480429,0.04449530785076661
1499369114820,-0.9146257724879834,-0.4110780498970015,0.04083314259555948
1499369114836,-0.9168230716411077,-0.41071183337148076,0.04364080262455161
1499369114852,-0.9148699168383305,-0.4105897611963072,0.04095521477073305
1499369114868,-0.9146257724879834,-0.4126649881742579,0.043030441748683756
1499369114884,-0.913038834210727,-0.41449607080186146,0.040344853894865196
1499369114900,-0.9140154116121155,-0.41412985427634075,0.03802548256656735
1499369114916,-0.9151140611886777,-0.4130312046997786,0.04058899824521234
1499369114932,-0.9164568551155869,-0.4118104829480429,0.04205386434729519
1499369114948,-0.9170672159914548,-0.41193255512321647,0.04339665827420447
1499369114964,-0.9164568551155869,-0.4125429159990843,0.04083314259555948
1499369114980,-0.9143816281376362,-0.41364156557564646,0.04058899824521234
1499369114996,-0.913893339436942,-0.4142519264515143,0.04364080262455161
1499369115012,-0.9120622568093384,-0.41193255512321647,0.042786297398336615
1499369115028,-0.912184328984512,-0.4131532768749522,0.046814679179064456
1499369115043,-0.9141374837872891,-0.41449607080186146,0.04461738002594018
1499369115059,-0.9157244220645455,-0.41290913252460504,0.04461738002594018
1499369115075,-0.9151140611886777,-0.4126649881742579,0.045471885252155175
1499369115091,-0.914747844663157,-0.4125429159990843,0.04510566872663446
1499369115107,-0.9153582055390248,-0.41242084382391075,0.045471885252155175
1499369115123,-0.9129167620355534,-0.4140077821011672,0.04437323567559304
1499369115139,-0.9118181124589912,-0.4142519264515143,0.04339665827420447
1499369115155,-0.9119401846341648,-0.41547264820325003,0.043030441748683756
1499369115171,-0.9135271229114212,-0.41168841077286933,0.04596017395284946
1499369115187,-0.9159685664148927,-0.4121766994735636,0.04339665827420447
1499369115203,-0.9173113603418019,-0.41168841077286933,0.04315251392385733
1499369115219,-0.9157244220645455,-0.4114442664225222,0.044129091325245895
1499369115235,-0.9142595559624627,-0.41120012207217504,0.04254215304798947
1499369115251,-0.9120622568093384,-0.4109559777218279,0.04364080262455161
1499369115267,-0.9146257724879834,-0.41193255512321647,0.04449530785076661
1499369115283,-0.9151140611886777,-0.41242084382391075,0.041687647821774476
1499369115299,-0.9151140611886777,-0.4122987716487372,0.04388494697489875
1499369115315,-0.9148699168383305,-0.41461814297703503,0.044129091325245895
1499369115331,-0.9131609063859005,-0.4142519264515143,0.03936827649347663
1499369115347,-0.9129167620355534,-0.4122987716487372,0.03961242084382377
1499369115363,-0.9134050507362477,-0.4142519264515143,0.04461738002594018
1499369115379,-0.9137712672617684,-0.4118104829480429,0.044129091325245895
1499369115395,-0.9151140611886777,-0.4121766994735636,0.04498359655146089
1499369115411,-0.9142595559624627,-0.4130312046997786,0.04376287479972518
1499369115427,-0.9136491950865948,-0.4131532768749522,0.04229800869764233
1499369115443,-0.9134050507362477,-0.4135194934004729,0.04510566872663446
1499369115459,-0.9116960402838177,-0.41327534905012575,0.04351873044937804
1499369115475,-0.9141374837872891,-0.41168841077286933,0.03961242084382377
1499369115491,-0.9151140611886777,-0.4126649881742579,0.04315251392385733
1499369115507,-0.9149919890135041,-0.41193255512321647,0.04339665827420447
1499369115523,-0.9159685664148927,-0.4131532768749522,0.04095521477073305
1499369115539,-0.9162127107652398,-0.4125429159990843,0.04180971999694805
1499369115555,-0.9152361333638512,-0.4121766994735636,0.04376287479972518
1499369115571,-0.9143816281376362,-0.4130312046997786,0.04339665827420447
1499369115587,-0.9148699168383305,-0.4135194934004729,0.044007019150072324
1499369115603,-0.9140154116121155,-0.4114442664225222,0.04693675135423803
1499369115619,-0.9159685664148927,-0.41376363775082003,0.04437323567559304
1499369115635,-0.9151140611886777,-0.4135194934004729,0.04254215304798947
1499369115651,-0.9157244220645455,-0.4133974212252993,0.04254215304798947
1499369115667,-0.9141374837872891,-0.41327534905012575,0.04498359655146089
1499369115683,-0.9134050507362477,-0.4118104829480429,0.042786297398336615
1499369115699,-0.9127946898603798,-0.41364156557564646,0.04315251392385733
1499369115715,-0.9146257724879834,-0.41290913252460504,0.041565575646600905
1499369115731,-0.9142595559624627,-0.4125429159990843,0.04180971999694805
1499369115747,-0.9134050507362477,-0.41242084382391075,0.043030441748683756
1499369115763,-0.9149919890135041,-0.41120012207217504,0.0432745860990309
1499369115779,-0.9132829785610741,-0.4121766994735636,0.042786297398336615
1499369115795,-0.9140154116121155,-0.41193255512321647,0.044251163500419466
1499369115811,-0.913038834210727,-0.41364156557564646,0.041443503471427334
1499369115827,-0.9141374837872891,-0.4110780498970015,0.041565575646600905
1499369115843,-0.9165789272907605,-0.41193255512321647,0.0432745860990309
1499369115859,-0.9182879377431905,-0.4122987716487372,0.042786297398336615
1499369115875,-0.9187762264438848,-0.4133974212252993,0.04193179217212162
1499369115891,-0.9149919890135041,-0.41290913252460504,0.0432745860990309
1499369115907,-0.9120622568093384,-0.41193255512321647,0.042786297398336615
1499369115923,-0.9123064011596855,-0.41278706034943147,0.044129091325245895
1499369115939,-0.9123064011596855,-0.4109559777218279,0.04473945220111375
1499369115955,-0.914747844663157,-0.4118104829480429,0.04254215304798947
1499369115971,-0.9158464942397191,-0.41242084382391075,0.041565575646600905
1499369115987,-0.9158464942397191,-0.41205462729839004,0.041687647821774476
1499369116003,-0.9151140611886777,-0.4125429159990843,0.042786297398336615
1499369116019,-0.913893339436942,-0.41290913252460504,0.04205386434729519
1499369116035,-0.9145037003128098,-0.4126649881742579,0.045593957427328746
1499369116051,-0.9132829785610741,-0.41290913252460504,0.04107728694590662
1499369116067,-0.9140154116121155,-0.4121766994735636,0.040344853894865196
1499369116083,-0.9154802777141984,-0.4121766994735636,0.042786297398336615
1499369116099,-0.9162127107652398,-0.4114442664225222,0.0424200808728159
1499369116115,-0.9154802777141984,-0.4110780498970015,0.04132143129625376
1499369116131,-0.914747844663157,-0.41168841077286933,0.03741512169069949
1499369116147,-0.913893339436942,-0.4125429159990843,0.03997863736934448
1499369116163,-0.9135271229114212,-0.4133974212252993,0.04388494697489875
1499369116179,-0.9146257724879834,-0.41278706034943147,0.0432745860990309
1499369116195,-0.9175555046921491,-0.4109559777218279,0.04449530785076661
1499369116211,-0.9179217212176698,-0.4114442664225222,0.04644846265354374
1499369116227,-0.914747844663157,-0.41327534905012575,0.045593957427328746
1499369116243,-0.9127946898603798,-0.41412985427634075,0.04510566872663446
1499369116259,-0.9126726176852062,-0.4143739986266879,0.04779125658045302
1499369116275,-0.9110856794079498,-0.4131532768749522,0.04742504005493231
1499369116291,-0.9135271229114212,-0.41193255512321647,0.04742504005493231
1499369116307,-0.9159685664148927,-0.41242084382391075,0.04473945220111375
1499369116323,-0.9154802777141984,-0.4122987716487372,0.044129091325245895
1499369116339,-0.9162127107652398,-0.41290913252460504,0.04364080262455161
1499369116355,-0.9160906385900662,-0.41193255512321647,0.042786297398336615
1499369116371,-0.9148699168383305,-0.4118104829480429,0.04388494697489875
1499369116387,-0.9153582055390248,-0.4110780498970015,0.04315251392385733
1499369116403,-0.9145037003128098,-0.4118104829480429,0.04473945220111375
1499369116419,-0.9145037003128098,-0.41120012207217504,0.0386358434424352
1499369116435,-0.9174334325169755,-0.4118104829480429,0.041443503471427334
1499369116451,-0.9162127107652398,-0.4126649881742579,0.03973449301899734
1499369116467,-0.9182879377431905,-0.41278706034943147,0.03961242084382377
1499369116483,-0.9153582055390248,-0.41412985427634075,0.04095521477073305
1499369116499,-0.913893339436942,-0.4148622873273822,0.0424200808728159
1499369116515,-0.9131609063859005,-0.4118104829480429,0.04205386434729519
1499369116531,-0.9142595559624627,-0.41156633859769576,0.044129091325245895
1499369116547,-0.9162127107652398,-0.4110780498970015,0.042786297398336615
1499369116563,-0.9164568551155869,-0.4131532768749522,0.04217593652246876
1499369116579,-0.9142595559624627,-0.41376363775082003,0.040344853894865196
1499369116595,-0.913038834210727,-0.41364156557564646,0.04132143129625376
1499369116611,-0.9124284733348591,-0.4135194934004729,0.04083314259555948
1499369116627,-0.912184328984512,-0.4121766994735636,0.04461738002594018
1499369116643,-0.9140154116121155,-0.41083390554665433,0.04193179217212162
1499369116659,-0.9152361333638512,-0.41120012207217504,0.04046692607003877
1499369116675,-0.9191424429694055,-0.4118104829480429,0.044007019150072324
1499369116691,-0.9184100099183641,-0.4110780498970015,0.0462043183031966
1499369116706,-0.9152361333638512,-0.41168841077286933,0.04205386434729519
1499369116722,-0.9141374837872891,-0.41278706034943147,0.04132143129625376
1499369116738,-0.9125505455100327,-0.4121766994735636,0.04046692607003877
1499369116754,-0.9118181124589912,-0.4121766994735636,0.041443503471427334
1499369116770,-0.9146257724879834,-0.4125429159990843,0.04083314259555948
1499369116786,-0.9170672159914548,-0.41168841077286933,0.04132143129625376
1499369116802,-0.9176775768673227,-0.41205462729839004,0.04071107042038591
1499369116818,-0.9174334325169755,-0.4118104829480429,0.042786297398336615
1499369116834,-0.915602349889372,-0.41193255512321647,0.04071107042038591
1499369116850,-0.9140154116121155,-0.4122987716487372,0.04083314259555948
1499369116866,-0.9127946898603798,-0.4122987716487372,0.043030441748683756
1499369116882,-0.9131609063859005,-0.41278706034943147,0.044007019150072324
1499369116898,-0.9159685664148927,-0.41242084382391075,0.042786297398336615
1499369116914,-0.9163347829404134,-0.4118104829480429,0.04351873044937804
1499369116930,-0.9157244220645455,-0.41120012207217504,0.04229800869764233
1499369116946,-0.9131609063859005,-0.41205462729839004,0.04254215304798947
1499369116962,-0.9136491950865948,-0.4118104829480429,0.040344853894865196
1499369116978,-0.9145037003128098,-0.41278706034943147,0.039002059967955915
1499369116994,-0.9148699168383305,-0.4113221942473486,0.04193179217212162
1499369117010,-0.914747844663157,-0.41034561684596005,0.040100709544518054
1499369117026,-0.9162127107652398,-0.4097352559700922,0.04095521477073305
1499369117042,-0.9159685664148927,-0.4104676890211336,0.04205386434729519
1499369117058,-0.9148699168383305,-0.4110780498970015,0.044129091325245895
1499369117074,-0.914747844663157,-0.41461814297703503,0.04388494697489875
1499369117090,-0.9148699168383305,-0.41498435950255574,0.041687647821774476
1499369117106,-0.9149919890135041,-0.41376363775082003,0.04046692607003877
1499369117122,-0.9163347829404134,-0.4114442664225222,0.042908369573510186
1499369117138,-0.9160906385900662,-0.4109559777218279,0.043030441748683756
1499369117154,-0.9159685664148927,-0.41083390554665433,0.041687647821774476
1499369117170,-0.9132829785610741,-0.41242084382391075,0.040344853894865196
1499369117186,-0.9131609063859005,-0.4148622873273822,0.040100709544518054
1499369117202,-0.9124284733348591,-0.41205462729839004,0.04364080262455161
1499369117218,-0.9135271229114212,-0.4122987716487372,0.043030441748683756
1499369117234,-0.9135271229114212,-0.41364156557564646,0.04364080262455161
1499369117250,-0.9165789272907605,-0.4125429159990843,0.043030441748683756
1499369117266,-0.9165789272907605,-0.41242084382391075,0.04046692607003877
1499369117282,-0.9163347829404134,-0.4122987716487372,0.041687647821774476
1499369117298,-0.9146257724879834,-0.4109559777218279,0.044007019150072324
1499369117314,-0.9151140611886777,-0.40997940032043934,0.04315251392385733
1499369117330,-0.9143816281376362,-0.4110780498970015,0.03802548256656735
1499369117346,-0.9127946898603798,-0.4125429159990843,0.03790341039139378
1499369117362,-0.9136491950865948,-0.4110780498970015,0.03924620431830306
1499369117378,-0.9154802777141984,-0.41205462729839004,0.04510566872663446
1499369117394,-0.9163347829404134,-0.4126649881742579,0.043030441748683756
1499369117410,-0.9170672159914548,-0.4118104829480429,0.04046692607003877
1499369117426,-0.914747844663157,-0.4118104829480429,0.040100709544518054
1499369117442,-0.9157244220645455,-0.4122987716487372,0.04071107042038591
1499369117458,-0.9129167620355534,-0.41156633859769576,0.04119935912108019
1499369117474,-0.9126726176852062,-0.4126649881742579,0.04083314259555948
1499369117490,-0.9125505455100327,-0.41242084382391075,0.03814755474174092
1499369117506,-0.9129167620355534,-0.4142519264515143,0.041565575646600905
1499369117522,-0.9149919890135041,-0.41168841077286933,0.043030441748683756
1499369117538,-0.9164568551155869,-0.4109559777218279,0.04193179217212162
1499369117554,-0.9169451438162812,-0.40985732814526576,0.04388494697489875
1499369117570,-0.9177996490424962,-0.41120012207217504,0.040344853894865196
1499369117586,-0.9145037003128098,-0.41120012207217504,0.04071107042038591
1499369117602,-0.9136491950865948,-0.41120012207217504,0.04071107042038591
1499369117618,-0.9151140611886777,-0.4125429159990843,0.04046692607003877
1499369117634,-0.9176775768673227,-0.41205462729839004,0.04254215304798947
1499369117650,-0.9168230716411077,-0.4104676890211336,0.04205386434729519
1499369117666,-0.9160906385900662,-0.41242084382391075,0.04473945220111375
1499369117682,-0.9153582055390248,-0.4140077821011672,0.041443503471427334
1499369117698,-0.9143816281376362,-0.4142519264515143,0.04132143129625376
1499369117714,-0.9152361333638512,-0.4131532768749522,0.03936827649347663
1499369117730,-0.9158464942397191,-0.40949111161974505,0.04315251392385733
1499369117746,-0.9164568551155869,-0.4097352559700922,0.041687647821774476
1499369117762,-0.9146257724879834,-0.41120012207217504,0.040100709544518054
1499369117778,-0.9146257724879834,-0.4105897611963072,0.03851377126726163
1499369117794,-0.9118181124589912,-0.4125429159990843,0.04315251392385733
1499369117810,-0.9125505455100327,-0.4125429159990843,0.04180971999694805
1499369117826,-0.9127946898603798,-0.4122987716487372,0.04376287479972518
1499369117842,-0.914747844663157,-0.4133974212252993,0.04107728694590662
1499369117858,-0.9173113603418019,-0.4114442664225222,0.044129091325245895
1499369117874,-0.9168230716411077,-0.41120012207217504,0.03973449301899734
1499369117890,-0.9154802777141984,-0.41120012207217504,0.040100709544518054
1499369117906,-0.9149919890135041,-0.41083390554665433,0.040100709544518054
1499369117922,-0.9143816281376362,-0.41278706034943147,0.040344853894865196
1499369117938,-0.9131609063859005,-0.4114442664225222,0.04083314259555948
1499369117954,-0.9145037003128098,-0.41376363775082003,0.042664225223163044
1499369117970,-0.9164568551155869,-0.4114442664225222,0.04132143129625376
1499369117986,-0.9162127107652398,-0.4121766994735636,0.041443503471427334
1499369118002,-0.9148699168383305,-0.41205462729839004,0.04058899824521234
1499369118018,-0.9160906385900662,-0.4118104829480429,0.04254215304798947
1499369118034,-0.9149919890135041,-0.4118104829480429,0.04095521477073305
1499369118050,-0.9143816281376362,-0.4121766994735636,0.04217593652246876
1499369118066,-0.9142595559624627,-0.41278706034943147,0.04229800869764233
1499369118082,-0.9137712672617684,-0.41168841077286933,0.043030441748683756
1499369118098,-0.9164568551155869,-0.4105897611963072,0.0424200808728159
1499369118114,-0.9164568551155869,-0.4121766994735636,0.044007019150072324
1499369118130,-0.9154802777141984,-0.4113221942473486,0.04339665827420447
1499369118146,-0.9153582055390248,-0.4125429159990843,0.04351873044937804
1499369118162,-0.914747844663157,-0.41083390554665433,0.04058899824521234
1499369118178,-0.9142595559624627,-0.4109559777218279,0.04046692607003877
1499369118194,-0.9136491950865948,-0.41242084382391075,0.04095521477073305
1499369118210,-0.9159685664148927,-0.41290913252460504,0.042664225223163044
1499369118226,-0.9164568551155869,-0.4105897611963072,0.0394903486686502
1499369118242,-0.915602349889372,-0.41156633859769576,0.04205386434729519
1499369118258,-0.9143816281376362,-0.41327534905012575,0.0432745860990309
1499369118274,-0.9114518959334705,-0.41364156557564646,0.04107728694590662
1499369118289,-0.9129167620355534,-0.41364156557564646,0.04388494697489875
1499369118305,-0.9162127107652398,-0.4122987716487372,0.0432745860990309
1499369118321,-0.9160906385900662,-0.4121766994735636,0.043030441748683756
1499369118337,-0.9187762264438848,-0.41168841077286933,0.045349813076981604
1499369118353,-0.914747844663157,-0.41193255512321647,0.04339665827420447
1499369118369,-0.9140154116121155,-0.41168841077286933,0.042786297398336615
1499369118385,-0.9103532463569084,-0.4126649881742579,0.04095521477073305
1499369118401,-0.9114518959334705,-0.4138857099259936,0.04498359655146089
1499369118417,-0.9134050507362477,-0.41327534905012575,0.04180971999694805
1499369118433,-0.915602349889372,-0.41290913252460504,0.04046692607003877
1499369118449,-0.9185320820935376,-0.4113221942473486,0.04071107042038591
1499369118465,-0.9191424429694055,-0.4126649881742579,0.04180971999694805
1499369118481,-0.9162127107652398,-0.41168841077286933,0.03961242084382377
1499369118497,-0.9135271229114212,-0.41168841077286933,0.037781338216220206
1499369118513,-0.9136491950865948,-0.41156633859769576,0.04071107042038591
1499369118529,-0.9151140611886777,-0.4118104829480429,0.04132143129625376
1499369118545,-0.9143816281376362,-0.4114442664225222,0.038879987792782345
1499369118561,-0.9159685664148927,-0.4113221942473486,0.04229800869764233
1499369118577,-0.9157244220645455,-0.4118104829480429,0.04205386434729519
1499369118593,-0.9164568551155869,-0.41290913252460504,0.040344853894865196
1499369118609,-0.9135271229114212,-0.41120012207217504,0.040344853894865196
1499369118625,-0.9134050507362477,-0.41205462729839004,0.04180971999694805
1499369118641,-0.9140154116121155,-0.41205462729839004,0.041565575646600905
1499369118657,-0.9148699168383305,-0.41205462729839004,0.04058899824521234
1499369118673,-0.9145037003128098,-0.4126649881742579,0.038757915617608774
1499369118689,-0.9149919890135041,-0.4113221942473486,0.04119935912108019
1499369118705,-0.9162127107652398,-0.40985732814526576,0.040222781719691625
1499369118721,-0.9160906385900662,-0.4121766994735636,0.041565575646600905
1499369118737,-0.9157244220645455,-0.4104676890211336,0.041687647821774476
1499369118753,-0.9146257724879834,-0.4130312046997786,0.03814755474174092
1499369118769,-0.913893339436942,-0.4121766994735636,0.038757915617608774
1499369118785,-0.9137712672617684,-0.41278706034943147,0.04046692607003877
1499369118801,-0.9181658655680169,-0.4121766994735636,0.041565575646600905
1499369118817,-0.9186541542687112,-0.4125429159990843,0.03851377126726163
1499369118833,-0.9184100099183641,-0.41156633859769576,0.04107728694590662
1499369118849,-0.9162127107652398,-0.4118104829480429,0.04119935912108019
1499369118865,-0.9132829785610741,-0.41168841077286933,0.04046692607003877
1499369118881,-0.9115739681086441,-0.41193255512321647,0.039002059967955915
1499369118897,-0.9134050507362477,-0.41168841077286933,0.04095521477073305
1499369118913,-0.9159685664148927,-0.41156633859769576,0.039002059967955915
1499369118929,-0.9171892881666284,-0.4105897611963072,0.03851377126726163
1499369118945,-0.9180437933928434,-0.41120012207217504,0.0394903486686502
1499369118961,-0.9162127107652398,-0.41205462729839004,0.03924620431830306
1499369118977,-0.9134050507362477,-0.41242084382391075,0.040344853894865196
1499369118993,-0.913038834210727,-0.4110780498970015,0.03973449301899734
1499369119009,-0.9114518959334705,-0.4140077821011672,0.04071107042038591
1499369119025,-0.9116960402838177,-0.41290913252460504,0.04132143129625376
1499369119041,-0.915602349889372,-0.4118104829480429,0.04107728694590662
1499369119057,-0.9188982986190584,-0.41205462729839004,0.03997863736934448
1499369119073,-0.9180437933928434,-0.4114442664225222,0.040344853894865196
1499369119089,-0.9164568551155869,-0.41034561684596005,0.03973449301899734
1499369119105,-0.9153582055390248,-0.4126649881742579,0.039124132143129486
1499369119121,-0.9120622568093384,-0.41168841077286933,0.04107728694590662
1499369119137,-0.9129167620355534,-0.41034561684596005,0.04095521477073305
1499369119153,-0.9132829785610741,-0.41242084382391075,0.04229800869764233
1499369119169,-0.9158464942397191,-0.4113221942473486,0.04071107042038591
1499369119185,-0.9173113603418019,-0.4114442664225222,0.03802548256656735
1499369119201,-0.9164568551155869,-0.41242084382391075,0.04083314259555948
1499369119217,-0.915602349889372,-0.41242084382391075,0.04046692607003877
1499369119233,-0.9142595559624627,-0.4125429159990843,0.04046692607003877
1499369119249,-0.9142595559624627,-0.41193255512321647,0.041443503471427334
1499369119265,-0.9148699168383305,-0.4122987716487372,0.041443503471427334
1499369119281,-0.9151140611886777,-0.41168841077286933,0.04119935912108019
1499369119297,-0.9148699168383305,-0.4109559777218279,0.03973449301899734
1499369119313,-0.9160906385900662,-0.41193255512321647,0.04180971999694805
1499369119329,-0.9160906385900662,-0.41242084382391075,0.041443503471427334
1499369119345,-0.9149919890135041,-0.41205462729839004,0.03973449301899734
1499369119361,-0.9132829785610741,-0.41156633859769576,0.038757915617608774
1499369119377,-0.9141374837872891,-0.4121766994735636,0.04107728694590662
1499369119393,-0.9158464942397191,-0.4109559777218279,0.03961242084382377
1499369119409,-0.9174334325169755,-0.4113221942473486,0.041565575646600905
1499369119425,-0.9152361333638512,-0.41205462729839004,0.04205386434729519
1499369119441,-0.9127946898603798,-0.41071183337148076,0.03790341039139378
1499369119457,-0.9112077515831234,-0.41205462729839004,0.04229800869764233
1499369119473,-0.910475318532082,-0.4121766994735636,0.04339665827420447
1499369119489,-0.9120622568093384,-0.4133974212252993,0.03961242084382377
1499369119505,-0.9167009994659341,-0.41278706034943147,0.037659266041046635
1499369119521,-0.9181658655680169,-0.41193255512321647,0.03582818341344307
1499369119537,-0.9198748760204469,-0.4104676890211336,0.03802548256656735
1499369119553,-0.9173113603418019,-0.41034561684596005,0.03790341039139378
1499369119569,-0.913893339436942,-0.4113221942473486,0.04107728694590662
1499369119585,-0.9101091020065613,-0.4122987716487372,0.03790341039139378
1499369119601,-0.9101091020065613,-0.4133974212252993,0.03985656519417091
1499369119617,-0.9120622568093384,-0.41083390554665433,0.03985656519417091
1499369119633,-0.9164568551155869,-0.4105897611963072,0.041687647821774476
1499369119649,-0.9168230716411077,-0.41034561684596005,0.04132143129625376
1499369119665,-0.9177996490424962,-0.4088807507438772,0.0394903486686502
1499369119681,-0.9159685664148927,-0.41120012207217504,0.03924620431830306
1499369119697,-0.9154802777141984,-0.4131532768749522,0.03961242084382377
1499369119713,-0.9126726176852062,-0.4104676890211336,0.04205386434729519
1499369119729,-0.9131609063859005,-0.4109559777218279,0.03936827649347663
1499369119745,-0.9140154116121155,-0.4114442664225222,0.040344853894865196
1499369119761,-0.9153582055390248,-0.41205462729839004,0.04095521477073305
1499369119777,-0.9163347829404134,-0.41193255512321647,0.0386358434424352
1499369119793,-0.9164568551155869,-0.4125429159990843,0.038757915617608774
1499369119809,-0.9162127107652398,-0.4126649881742579,0.03985656519417091
1499369119825,-0.9140154116121155,-0.4131532768749522,0.04058899824521234
1499369119840,-0.9145037003128098,-0.4121766994735636,0.043030441748683756
1499369119856,-0.9141374837872891,-0.4121766994735636,0.042908369573510186
1499369119872,-0.913893339436942,-0.41242084382391075,0.041443503471427334
1499369119888,-0.9125505455100327,-0.4125429159990843,0.03741512169069949
1499369119904,-0.9152361333638512,-0.41120012207217504,0.0394903486686502
1499369119920,-0.914747844663157,-0.41205462729839004,0.04071107042038591
1499369119936,-0.913893339436942,-0.41242084382391075,0.0394903486686502
1499369119952,-0.914747844663157,-0.4121766994735636,0.03826962691691449
1499369119968,-0.9153582055390248,-0.41083390554665433,0.039002059967955915
1499369119984,-0.9164568551155869,-0.4121766994735636,0.03997863736934448
1499369120000,-0.9180437933928434,-0.41193255512321647,0.04058899824521234
1499369120016,-0.9173113603418019,-0.41193255512321647,0.03936827649347663
1499369120032,-0.9164568551155869,-0.41168841077286933,0.04071107042038591
1499369120048,-0.914747844663157,-0.41083390554665433,0.04046692607003877
1499369120064,-0.9115739681086441,-0.41083390554665433,0.04046692607003877
1499369120080,-0.9127946898603798,-0.41120012207217504,0.03839169909208806
1499369120096,-0.9160906385900662,-0.4110780498970015,0.04071107042038591
1499369120112,-0.9157244220645455,-0.41193255512321647,0.039002059967955915
1499369120128,-0.9164568551155869,-0.4114442664225222,0.03704890516517878
1499369120144,-0.9185320820935376,-0.4121766994735636,0.039124132143129486
1499369120160,-0.9159685664148927,-0.4118104829480429,0.04205386434729519
1499369120176,-0.9154802777141984,-0.40985732814526576,0.03997863736934448
1499369120192,-0.9131609063859005,-0.41193255512321647,0.03936827649347663
1499369120208,-0.9125505455100327,-0.4121766994735636,0.04193179217212162
1499369120224,-0.9114518959334705,-0.4110780498970015,0.04205386434729519
1499369120240,-0.9137712672617684,-0.4105897611963072,0.041687647821774476
1499369120256,-0.9157244220645455,-0.4118104829480429,0.03936827649347663
1499369120272,-0.9179217212176698,-0.4114442664225222,0.037537193865873064
1499369120288,-0.9181658655680169,-0.41120012207217504,0.03839169909208806
1499369120304,-0.9171892881666284,-0.41168841077286933,0.03729304951552592
1499369120320,-0.915602349889372,-0.41193255512321647,0.039002059967955915
1499369120336,-0.9146257724879834,-0.41205462729839004,0.04193179217212162
1499369120352,-0.9153582055390248,-0.4125429159990843,0.04058899824521234
1499369120368,-0.9141374837872891,-0.4142519264515143,0.040344853894865196
1499369120384,-0.9132829785610741,-0.41290913252460504,0.04095521477073305
1499369120400,-0.9146257724879834,-0.41242084382391075,0.040344853894865196
1499369120416,-0.914747844663157,-0.4135194934004729,0.03851377126726163
1499369120432,-0.9164568551155869,-0.4118104829480429,0.03839169909208806
1499369120448,-0.9175555046921491,-0.4104676890211336,0.03790341039139378
1499369120464,-0.9174334325169755,-0.41083390554665433,0.038757915617608774
1499369120480,-0.9159685664148927,-0.4104676890211336,0.0394903486686502
1499369120496,-0.9160906385900662,-0.41071183337148076,0.038879987792782345
1499369120512,-0.913038834210727,-0.4113221942473486,0.04132143129625376
1499369120528,-0.911329823758297,-0.4125429159990843,0.04449530785076661
1499369120544,-0.913038834210727,-0.4125429159990843,0.03973449301899734
1499369120560,-0.9162127107652398,-0.4114442664225222,0.04058899824521234
1499369120576,-0.9184100099183641,-0.4109559777218279,0.04083314259555948
1499369120592,-0.9185320820935376,-0.4131532768749522,0.041687647821774476
1499369120608,-0.915602349889372,-0.4131532768749522,0.04205386434729519
1499369120624,-0.9149919890135041,-0.4125429159990843,0.03790341039139378
1499369120640,-0.9142595559624627,-0.4121766994735636,0.040222781719691625
1499369120656,-0.9135271229114212,-0.41034561684596005,0.0394903486686502
1499369120672,-0.9116960402838177,-0.41120012207217504,0.03924620431830306
1499369120688,-0.9129167620355534,-0.41071183337148076,0.037659266041046635
1499369120704,-0.9140154116121155,-0.41205462729839004,0.03704890516517878
1499369120720,-0.9157244220645455,-0.4125429159990843,0.03790341039139378
1499369120736,-0.9181658655680169,-0.4113221942473486,0.040100709544518054
1499369120752,-0.9179217212176698,-0.41168841077286933,0.037537193865873064
1499369120768,-0.9162127107652398,-0.4109559777218279,0.03692683299000521
1499369120784,-0.9158464942397191,-0.4126649881742579,0.03717097734035235
1499369120800,-0.9135271229114212,-0.41205462729839004,0.03973449301899734
1499369120816,-0.9126726176852062,-0.4125429159990843,0.040100709544518054
1499369120832,-0.9135271229114212,-0.41071183337148076,0.03985656519417091
1499369120848,-0.9142595559624627,-0.41193255512321647,0.04058899824521234
1499369120864,-0.9159685664148927,-0.4113221942473486,0.0386358434424352
1499369120880,-0.9174334325169755,-0.41193255512321647,0.040222781719691625
1499369120896,-0.9182879377431905,-0.4109559777218279,0.043030441748683756
1499369120912,-0.9159685664148927,-0.4114442664225222,0.03961242084382377
1499369120928,-0.9148699168383305,-0.4130312046997786,0.038879987792782345
1499369120944,-0.9142595559624627,-0.41193255512321647,0.038757915617608774
1499369120960,-0.913893339436942,-0.4143739986266879,0.039124132143129486
1499369120976,-0.9132829785610741,-0.4122987716487372,0.04046692607003877
1499369120992,-0.9135271229114212,-0.4121766994735636,0.038879987792782345
1499369121008,-0.9164568551155869,-0.4109559777218279,0.03814755474174092
1499369121024,-0.9179217212176698,-0.40997940032043934,0.03790341039139378
1499369121040,-0.9157244220645455,-0.41168841077286933,0.03692683299000521
1499369121056,-0.9168230716411077,-0.4114442664225222,0.03790341039139378
1499369121072,-0.9148699168383305,-0.41071183337148076,0.03839169909208806
1499369121088,-0.9131609063859005,-0.4113221942473486,0.03961242084382377
1499369121104,-0.9132829785610741,-0.41242084382391075,0.04046692607003877
1499369121120,-0.9151140611886777,-0.41120012207217504,0.040222781719691625
1499369121136,-0.9174334325169755,-0.41156633859769576,0.03924620431830306
1499369121152,-0.9174334325169755,-0.4135194934004729,0.04107728694590662
1499369121168,-0.9175555046921491,-0.41290913252460504,0.03936827649347663
1499369121184,-0.9149919890135041,-0.41242084382391075,0.0394903486686502
1499369121200,-0.913893339436942,-0.4131532768749522,0.04107728694590662
1499369121216,-0.9141374837872891,-0.41120012207217504,0.04046692607003877
1499369121232,-0.9134050507362477,-0.4130312046997786,0.04119935912108019
1499369121248,-0.9136491950865948,-0.4133974212252993,0.040100709544518054
1499369121264,-0.9136491950865948,-0.4110780498970015,0.041687647821774476
1499369121280,-0.9152361333638512,-0.41168841077286933,0.04083314259555948
1499369121296,-0.9160906385900662,-0.4104676890211336,0.03936827649347663
1499369121312,-0.9158464942397191,-0.41071183337148076,0.038879987792782345
1499369121328,-0.9142595559624627,-0.4118104829480429,0.038879987792782345
1499369121344,-0.9143816281376362,-0.4102235446707865,0.03741512169069949
1499369121360,-0.9149919890135041,-0.40912489509422434,0.03924620431830306
1499369121376,-0.9164568551155869,-0.4093690394445715,0.037537193865873064
1499369121392,-0.9171892881666284,-0.40949111161974505,0.0394903486686502
1499369121408,-0.9170672159914548,-0.4114442664225222,0.04046692607003877
1499369121424,-0.9149919890135041,-0.4113221942473486,0.03997863736934448
1499369121439,-0.9127946898603798,-0.4114442664225222,0.038879987792782345
1499369121455,-0.911329823758297,-0.4126649881742579,0.041443503471427334
1499369121471,-0.9140154116121155,-0.4140077821011672,0.03936827649347663
1499369121487,-0.9159685664148927,-0.41168841077286933,0.03924620431830306
1499369121503,-0.9176775768673227,-0.4125429159990843,0.041443503471427334
1499369121519,-0.9186541542687112,-0.4121766994735636,0.03814755474174092
1499369121535,-0.9175555046921491,-0.4114442664225222,0.037659266041046635
1499369121551,-0.9164568551155869,-0.41120012207217504,0.040222781719691625
1499369121567,-0.9145037003128098,-0.4114442664225222,0.03704890516517878
1499369121583,-0.9125505455100327,-0.4114442664225222,0.0394903486686502
1499369121599,-0.9143816281376362,-0.4096131837949186,0.03839169909208806
1499369121615,-0.9165789272907605,-0.4105897611963072,0.03924620431830306
1499369121631,-0.9180437933928434,-0.41156633859769576,0.04071107042038591
1499369121647,-0.9160906385900662,-0.4105897611963072,0.04071107042038591
1499369121663,-0.9169451438162812,-0.4101014724956129,0.04180971999694805
1499369121679,-0.9160906385900662,-0.40985732814526576,0.040344853894865196
1499369121695,-0.9174334325169755,-0.4101014724956129,0.038879987792782345
1499369121711,-0.9171892881666284,-0.4125429159990843,0.03814755474174092
1499369121727,-0.9165789272907605,-0.41071183337148076,0.04229800869764233
1499369121743,-0.9142595559624627,-0.4118104829480429,0.0394903486686502
1499369121759,-0.9132829785610741,-0.4122987716487372,0.03790341039139378
1499369121775,-0.9118181124589912,-0.41205462729839004,0.03802548256656735
1499369121791,-0.9127946898603798,-0.41193255512321647,0.03802548256656735
1499369121807,-0.9141374837872891,-0.4110780498970015,0.04083314259555948
1499369121823,-0.9171892881666284,-0.41071183337148076,0.03839169909208806
1499369121839,-0.9182879377431905,-0.40997940032043934,0.0386358434424352
1499369121855,-0.9170672159914548,-0.41156633859769576,0.03924620431830306
1499369121871,-0.9158464942397191,-0.4101014724956129,0.03936827649347663
1499369121887,-0.9131609063859005,-0.41193255512321647,0.03961242084382377
1499369121903,-0.9108415350576027,-0.41290913252460504,0.03790341039139378
1499369121919,-0.9115739681086441,-0.41242084382391075,0.036438544289310926
1499369121935,-0.9145037003128098,-0.41205462729839004,0.037659266041046635
1499369121951,-0.9184100099183641,-0.4114442664225222,0.039002059967955915
1499369121967,-0.9202410925459676,-0.41120012207217504,0.03851377126726163
1499369121983,-0.9204852368963148,-0.40985732814526576,0.037659266041046635
1499369121999,-0.9192645151445791,-0.4101014724956129,0.03790341039139378
1499369122015,-0.9153582055390248,-0.4113221942473486,0.03814755474174092
1499369122031,-0.9134050507362477,-0.41071183337148076,0.040222781719691625
1499369122047,-0.9099870298313877,-0.41156633859769576,0.04083314259555948
1499369122063,-0.9135271229114212,-0.41071183337148076,0.03839169909208806
1499369122079,-0.9157244220645455,-0.4121766994735636,0.04132143129625376
1499369122095,-0.9185320820935376,-0.4118104829480429,0.03851377126726163
1499369122111,-0.9208514534218355,-0.4097352559700922,0.03790341039139378
1499369122127,-0.9197528038452734,-0.41083390554665433,0.03802548256656735
1499369122143,-0.9170672159914548,-0.41120012207217504,0.03985656519417091
1499369122159,-0.913893339436942,-0.41120012207217504,0.03973449301899734
1499369122175,-0.9116960402838177,-0.4105897611963072,0.0432745860990309
1499369122191,-0.9135271229114212,-0.4104676890211336,0.04107728694590662
1499369122207,-0.9157244220645455,-0.4105897611963072,0.03839169909208806
1499369122223,-0.9167009994659341,-0.4125429159990843,0.03961242084382377
1499369122239,-0.9159685664148927,-0.4121766994735636,0.03814755474174092
1499369122255,-0.9154802777141984,-0.4114442664225222,0.037537193865873064
1499369122271,-0.9171892881666284,-0.41193255512321647,0.03997863736934448
1499369122287,-0.9177996490424962,-0.4114442664225222,0.039124132143129486
1499369122303,-0.9185320820935376,-0.4114442664225222,0.037781338216220206
1499369122319,-0.9168230716411077,-0.4114442664225222,0.03704890516517878
1499369122335,-0.915602349889372,-0.4113221942473486,0.0365606164644845
1499369122351,-0.9129167620355534,-0.41242084382391075,0.03961242084382377
1499369122367,-0.9123064011596855,-0.41205462729839004,0.03985656519417091
1499369122383,-0.9140154116121155,-0.4125429159990843,0.04193179217212162
1499369122399,-0.9171892881666284,-0.4121766994735636,0.041687647821774476
1499369122415,-0.9175555046921491,-0.4113221942473486,0.038757915617608774
1499369122431,-0.9182879377431905,-0.41071183337148076,0.03704890516517878
1499369122447,-0.9175555046921491,-0.4121766994735636,0.03936827649347663
1499369122463,-0.9143816281376362,-0.41120012207217504,0.040222781719691625
1499369122479,-0.9127946898603798,-0.4130312046997786,0.03851377126726163
1499369122495,-0.9136491950865948,-0.4121766994735636,0.0386358434424352
1499369122511,-0.9153582055390248,-0.4122987716487372,0.03985656519417091
1499369122527,-0.9171892881666284,-0.41193255512321647,0.04046692607003877
1499369122543,-0.9179217212176698,-0.4109559777218279,0.038879987792782345
1499369122559,-0.9179217212176698,-0.4102235446707865,0.03839169909208806
1499369122575,-0.9168230716411077,-0.4109559777218279,0.03826962691691449
1499369122591,-0.9146257724879834,-0.41120012207217504,0.03924620431830306
1499369122607,-0.913038834210727,-0.41278706034943147,0.038879987792782345
1499369122623,-0.9127946898603798,-0.41156633859769576,0.039124132143129486
1499369122639,-0.9151140611886777,-0.4110780498970015,0.039002059967955915
1499369122655,-0.9168230716411077,-0.4096131837949186,0.03997863736934448
1499369122671,-0.9181658655680169,-0.41071183337148076,0.039002059967955915
1499369122687,-0.915602349889372,-0.41120012207217504,0.038757915617608774
1499369122703,-0.9163347829404134,-0.41278706034943147,0.03973449301899734
1499369122719,-0.9153582055390248,-0.4126649881742579,0.040222781719691625
1499369122735,-0.9149919890135041,-0.4140077821011672,0.03607232776379021
1499369122751,-0.913038834210727,-0.41242084382391075,0.037659266041046635
1499369122767,-0.9116960402838177,-0.4096131837949186,0.03985656519417091
1499369122783,-0.913893339436942,-0.4080262455176622,0.0386358434424352
1499369122799,-0.9159685664148927,-0.40985732814526576,0.0386358434424352
1499369122815,-0.9170672159914548,-0.40900282291905077,0.03851377126726163
1499369122831,-0.9148699168383305,-0.41083390554665433,0.03607232776379021
1499369122847,-0.9152361333638512,-0.41071183337148076,0.03851377126726163
1499369122863,-0.9174334325169755,-0.4101014724956129,0.040100709544518054
1499369122879,-0.9175555046921491,-0.4110780498970015,0.043030441748683756
1499369122895,-0.9160906385900662,-0.4122987716487372,0.03851377126726163
1499369122911,-0.914747844663157,-0.4122987716487372,0.037781338216220206
1499369122927,-0.9125505455100327,-0.4131532768749522,0.03704890516517878
1499369122943,-0.9124284733348591,-0.4118104829480429,0.04083314259555948
1499369122959,-0.9136491950865948,-0.41034561684596005,0.04254215304798947
1499369122975,-0.9154802777141984,-0.41071183337148076,0.03680476081483164
1499369122991,-0.915602349889372,-0.4105897611963072,0.03460746166170736
1499369123007,-0.9169451438162812,-0.4104676890211336,0.03802548256656735
1499369123023,-0.9154802777141984,-0.4101014724956129,0.039002059967955915
1499369123038,-0.9143816281376362,-0.41156633859769576,0.037659266041046635
1499369123054,-0.9140154116121155,-0.4122987716487372,0.03741512169069949
1499369123070,-0.9141374837872891,-0.4125429159990843,0.036194399938963784
1499369123086,-0.9165789272907605,-0.4131532768749522,0.037537193865873064
1499369123102,-0.9177996490424962,-0.40985732814526576,0.04132143129625376
1499369123118,-0.9164568551155869,-0.4104676890211336,0.04046692607003877
1499369123134,-0.9160906385900662,-0.4102235446707865,0.03924620431830306
1499369123150,-0.9125505455100327,-0.4113221942473486,0.03692683299000521
1499369123166,-0.9120622568093384,-0.4113221942473486,0.03936827649347663
1499369123182,-0.9119401846341648,-0.41205462729839004,0.041565575646600905
1499369123198,-0.9158464942397191,-0.41120012207217504,0.03668268863965807
1499369123214,-0.9184100099183641,-0.4102235446707865,0.041443503471427334
1499369123230,-0.9207293812466619,-0.41071183337148076,0.03814755474174092
1499369123246,-0.9184100099183641,-0.4101014724956129,0.034973678187228074
1499369123262,-0.9146257724879834,-0.4118104829480429,0.037659266041046635
1499369123278,-0.9125505455100327,-0.41083390554665433,0.03936827649347663
1499369123294,-0.9112077515831234,-0.41205462729839004,0.039124132143129486
1499369123310,-0.913038834210727,-0.41168841077286933,0.03826962691691449
1499369123326,-0.9158464942397191,-0.4114442664225222,0.03985656519417091
1499369123342,-0.9191424429694055,-0.4113221942473486,0.036194399938963784
1499369123358,-0.9179217212176698,-0.41034561684596005,0.038879987792782345
1499369123374,-0.9185320820935376,-0.4114442664225222,0.04083314259555948
1499369123390,-0.9170672159914548,-0.4105897611963072,0.03826962691691449
1499369123406,-0.9132829785610741,-0.41156633859769576,0.040344853894865196
1499369123422,-0.911329823758297,-0.4126649881742579,0.03814755474174092
1499369123438,-0.9129167620355534,-0.41205462729839004,0.03851377126726163
1499369123454,-0.9164568551155869,-0.41242084382391075,0.03961242084382377
1499369123470,-0.9160906385900662,-0.41156633859769576,0.03973449301899734
1499369123486,-0.9165789272907605,-0.4113221942473486,0.040344853894865196
1499369123502,-0.9169451438162812,-0.41278706034943147,0.03790341039139378
1499369123518,-0.913893339436942,-0.4125429159990843,0.03692683299000521
1499369123534,-0.913893339436942,-0.41120012207217504,0.039002059967955915
1499369123550,-0.9137712672617684,-0.4122987716487372,0.0394903486686502
1499369123566,-0.9145037003128098,-0.4113221942473486,0.03814755474174092
1499369123582,-0.913893339436942,-0.41242084382391075,0.036194399938963784
1499369123598,-0.9148699168383305,-0.4118104829480429,0.03790341039139378
1499369123614,-0.9160906385900662,-0.4121766994735636,0.03814755474174092
1499369123630,-0.9148699168383305,-0.4142519264515143,0.039124132143129486
1499369123646,-0.9137712672617684,-0.4121766994735636,0.03692683299000521
1499369123662,-0.9153582055390248,-0.4118104829480429,0.03582818341344307
1499369123678,-0.9169451438162812,-0.4114442664225222,0.03839169909208806
1499369123694,-0.9176775768673227,-0.4102235446707865,0.03802548256656735
1499369123710,-0.915602349889372,-0.40997940032043934,0.0386358434424352
1499369123726,-0.9167009994659341,-0.4101014724956129,0.03851377126726163
1499369123742,-0.9143816281376362,-0.41071183337148076,0.041565575646600905
1499369123758,-0.914747844663157,-0.41168841077286933,0.03680476081483164
1499369123774,-0.9151140611886777,-0.4114442664225222,0.04071107042038591
1499369123790,-0.9151140611886777,-0.4118104829480429,0.038757915617608774
1499369123806,-0.9173113603418019,-0.4113221942473486,0.03790341039139378
1499369123822,-0.9174334325169755,-0.4126649881742579,0.03851377126726163
1499369123838,-0.9177996490424962,-0.4110780498970015,0.041443503471427334
1499369123854,-0.9142595559624627,-0.4109559777218279,0.03985656519417091
1499369123870,-0.9132829785610741,-0.41205462729839004,0.03839169909208806
1499369123886,-0.9116960402838177,-0.4121766994735636,0.03826962691691449
1499369123902,-0.9127946898603798,-0.41327534905012575,0.03924620431830306
1499369123918,-0.9145037003128098,-0.41242084382391075,0.03717097734035235
1499369123934,-0.9175555046921491,-0.40985732814526576,0.03802548256656735
1499369123950,-0.9185320820935376,-0.40949111161974505,0.03936827649347663
1499369123966,-0.9179217212176698,-0.4096131837949186,0.039124132143129486
1499369123982,-0.9149919890135041,-0.4122987716487372,0.03582818341344307
1499369123998,-0.9131609063859005,-0.41278706034943147,0.03668268863965807
1499369124014,-0.9135271229114212,-0.41168841077286933,0.03851377126726163
1499369124030,-0.9157244220645455,-0.4118104829480429,0.03802548256656735
1499369124046,-0.9175555046921491,-0.41071183337148076,0.039124132143129486
1499369124062,-0.9170672159914548,-0.4113221942473486,0.040222781719691625
1499369124078,-0.9175555046921491,-0.4104676890211336,0.03851377126726163
1499369124094,-0.9154802777141984,-0.4110780498970015,0.03790341039139378
1499369124110,-0.9143816281376362,-0.41156633859769576,0.03802548256656735
1499369124126,-0.9135271229114212,-0.41156633859769576,0.04058899824521234
1499369124142,-0.9129167620355534,-0.41205462729839004,0.03668268863965807
1499369124158,-0.9135271229114212,-0.41278706034943147,0.040344853894865196
1499369124174,-0.9143816281376362,-0.41034561684596005,0.03839169909208806
1499369124190,-0.9153582055390248,-0.4102235446707865,0.03936827649347663
1499369124206,-0.9143816281376362,-0.4122987716487372,0.039002059967955915
1499369124222,-0.9145037003128098,-0.4143739986266879,0.037659266041046635
1499369124238,-0.9136491950865948,-0.41168841077286933,0.03668268863965807
1499369124254,-0.9152361333638512,-0.40985732814526576,0.03814755474174092
1499369124270,-0.9158464942397191,-0.41071183337148076,0.040100709544518054
1499369124286,-0.9163347829404134,-0.40949111161974505,0.03607232776379021
1499369124302,-0.9164568551155869,-0.4102235446707865,0.03680476081483164
1499369124318,-0.9176775768673227,-0.40949111161974505,0.03936827649347663
1499369124334,-0.9151140611886777,-0.41205462729839004,0.039002059967955915
1499369124350,-0.9148699168383305,-0.4125429159990843,0.038757915617608774
1499369124366,-0.9135271229114212,-0.41327534905012575,0.039124132143129486
1499369124382,-0.9132829785610741,-0.4126649881742579,0.03997863736934448
1499369124398,-0.914747844663157,-0.41290913252460504,0.03826962691691449
1499369124414,-0.9163347829404134,-0.4121766994735636,0.040222781719691625
1499369124430,-0.9185320820935376,-0.41193255512321647,0.038879987792782345
1499369124446,-0.9167009994659341,-0.4109559777218279,0.03729304951552592
1499369124462,-0.9149919890135041,-0.4110780498970015,0.03717097734035235
1499369124478,-0.9143816281376362,-0.4109559777218279,0.03839169909208806
1499369124494,-0.9110856794079498,-0.4113221942473486,0.037781338216220206
1499369124510,-0.912184328984512,-0.41034561684596005,0.03460746166170736
1499369124526,-0.914747844663157,-0.4105897611963072,0.037537193865873064
1499369124542,-0.9168230716411077,-0.4125429159990843,0.038757915617608774
1499369124558,-0.9163347829404134,-0.4118104829480429,0.039124132143129486
1499369124574,-0.9174334325169755,-0.41120012207217504,0.03814755474174092
1499369124590,-0.9165789272907605,-0.4121766994735636,0.040100709544518054
1499369124606,-0.9160906385900662,-0.4109559777218279,0.03729304951552592
1499369124622,-0.9149919890135041,-0.4131532768749522,0.039002059967955915
1499369124637,-0.9127946898603798,-0.41278706034943147,0.037537193865873064
1499369124653,-0.9137712672617684,-0.4122987716487372,0.037781338216220206
1499369124669,-0.9135271229114212,-0.41278706034943147,0.03729304951552592
1499369124685,-0.9159685664148927,-0.41168841077286933,0.04095521477073305
1499369124701,-0.9164568551155869,-0.4126649881742579,0.039002059967955915
1499369124717,-0.9167009994659341,-0.41205462729839004,0.03704890516517878
1499369124733,-0.9159685664148927,-0.41205462729839004,0.037537193865873064
1499369124749,-0.9154802777141984,-0.41242084382391075,0.037537193865873064
1499369124765,-0.9135271229114212,-0.4133974212252993,0.040344853894865196
1499369124781,-0.9110856794079498,-0.41242084382391075,0.03997863736934448
1499369124797,-0.9105973907072555,-0.4126649881742579,0.036194399938963784
1499369124813,-0.9140154116121155,-0.41242084382391075,0.033752956435492365
1499369124829,-0.9162127107652398,-0.4101014724956129,0.036316472114137355
1499369124845,-0.9198748760204469,-0.40949111161974505,0.04083314259555948
1499369124861,-0.9184100099183641,-0.4101014724956129,0.03704890516517878
1499369124877,-0.9149919890135041,-0.41156633859769576,0.03826962691691449
1499369124893,-0.9142595559624627,-0.41242084382391075,0.04095521477073305
1499369124909,-0.9132829785610741,-0.41156633859769576,0.0394903486686502
1499369124925,-0.9126726176852062,-0.41083390554665433,0.03607232776379021
1499369124941,-0.915602349889372,-0.41120012207217504,0.03802548256656735
1499369124957,-0.9164568551155869,-0.4126649881742579,0.037781338216220206
1499369124973,-0.9168230716411077,-0.4118104829480429,0.03973449301899734
1499369124989,-0.9153582055390248,-0.41242084382391075,0.0386358434424352
1499369125005,-0.9151140611886777,-0.41156633859769576,0.03607232776379021
1499369125021,-0.914747844663157,-0.4113221942473486,0.03839169909208806
1499369125037,-0.9149919890135041,-0.4126649881742579,0.03973449301899734
1499369125053,-0.9132829785610741,-0.41083390554665433,0.03802548256656735
1499369125069,-0.9143816281376362,-0.41034561684596005,0.03851377126726163
1499369125085,-0.9157244220645455,-0.4093690394445715,0.039124132143129486
1499369125101,-0.9162127107652398,-0.4097352559700922,0.03961242084382377
1499369125117,-0.9131609063859005,-0.4113221942473486,0.03839169909208806
1499369125133,-0.9126726176852062,-0.41205462729839004,0.03851377126726163
1499369125149,-0.9135271229114212,-0.41278706034943147,0.037537193865873064
1499369125165,-0.9168230716411077,-0.4131532768749522,0.03472953383688093
1499369125181,-0.9202410925459676,-0.41156633859769576,0.03668268863965807
1499369125197,-0.9204852368963148,-0.4101014724956129,0.037537193865873064
1499369125213,-0.9185320820935376,-0.4105897611963072,0.039124132143129486
1499369125229,-0.9136491950865948,-0.4110780498970015,0.036438544289310926
1499369125245,-0.9124284733348591,-0.4114442664225222,0.03607232776379021
1499369125261,-0.9123064011596855,-0.41083390554665433,0.038879987792782345
1499369125277,-0.9153582055390248,-0.4110780498970015,0.039002059967955915
1499369125293,-0.9182879377431905,-0.41071183337148076,0.038879987792782345
1499369125309,-0.9181658655680169,-0.41156633859769576,0.03729304951552592
1499369125325,-0.9184100099183641,-0.40997940032043934,0.03826962691691449
1499369125341,-0.9154802777141984,-0.41034561684596005,0.037537193865873064
1499369125357,-0.9135271229114212,-0.4121766994735636,0.03851377126726163
1499369125373,-0.9112077515831234,-0.41278706034943147,0.03826962691691449
1499369125389,-0.9127946898603798,-0.41083390554665433,0.03814755474174092
1499369125405,-0.9140154116121155,-0.41083390554665433,0.03704890516517878
1499369125421,-0.9154802777141984,-0.4105897611963072,0.03790341039139378
1499369125437,-0.9179217212176698,-0.41168841077286933,0.03985656519417091
1499369125453,-0.9167009994659341,-0.4109559777218279,0.03961242084382377
1499369125469,-0.9162127107652398,-0.40949111161974505,0.03985656519417091
1499369125485,-0.9152361333638512,-0.4097352559700922,0.04071107042038591
1499369125501,-0.9126726176852062,-0.41168841077286933,0.038879987792782345
1499369125517,-0.9143816281376362,-0.4110780498970015,0.03851377126726163
1499369125533,-0.9146257724879834,-0.41071183337148076,0.038757915617608774
1499369125549,-0.915602349889372,-0.4121766994735636,0.036194399938963784
1499369125565,-0.9163347829404134,-0.4122987716487372,0.03790341039139378
1499369125581,-0.9158464942397191,-0.4110780498970015,0.037659266041046635
1499369125597,-0.9143816281376362,-0.41071183337148076,0.04095521477073305
1499369125613,-0.913893339436942,-0.4109559777218279,0.038879987792782345
1499369125629,-0.9143816281376362,-0.4122987716487372,0.03814755474174092
1499369125645,-0.9149919890135041,-0.41083390554665433,0.037781338216220206
1499369125661,-0.9151140611886777,-0.4101014724956129,0.03595025558861664
1499369125677,-0.9173113603418019,-0.4104676890211336,0.0394903486686502
1499369125693,-0.9164568551155869,-0.40985732814526576,0.03692683299000521
1499369125709,-0.9160906385900662,-0.4113221942473486,0.03680476081483164
1499369125725,-0.9129167620355534,-0.4105897611963072,0.03350881208514522
1499369125741,-0.9143816281376362,-0.41278706034943147,0.03558403906309593
1499369125757,-0.9162127107652398,-0.41083390554665433,0.036316472114137355
1499369125773,-0.9171892881666284,-0.4105897611963072,0.03729304951552592
1499369125789,-0.9173113603418019,-0.4126649881742579,0.03839169909208806
1499369125805,-0.9158464942397191,-0.4122987716487372,0.038757915617608774
1499369125821,-0.9152361333638512,-0.4114442664225222,0.03961242084382377
1499369125837,-0.9115739681086441,-0.4113221942473486,0.03741512169069949
1499369125853,-0.911329823758297,-0.41205462729839004,0.039124132143129486
1499369125869,-0.913893339436942,-0.41034561684596005,0.034973678187228074
1499369125885,-0.9164568551155869,-0.4096131837949186,0.03826962691691449
1499369125901,-0.9197528038452734,-0.4093690394445715,0.038879987792782345
1499369125917,-0.9168230716411077,-0.41156633859769576,0.037659266041046635
1499369125933,-0.9142595559624627,-0.4125429159990843,0.036194399938963784
1499369125949,-0.9126726176852062,-0.4122987716487372,0.03680476081483164
1499369125965,-0.9129167620355534,-0.41290913252460504,0.03582818341344307
1499369125981,-0.9142595559624627,-0.4121766994735636,0.0357061112382695
1499369125997,-0.9171892881666284,-0.4096131837949186,0.03729304951552592
1499369126013,-0.9186541542687112,-0.4097352559700922,0.039124132143129486
1499369126029,-0.9162127107652398,-0.4101014724956129,0.03985656519417091
1499369126045,-0.9159685664148927,-0.41034561684596005,0.03936827649347663
1499369126061,-0.9134050507362477,-0.41071183337148076,0.03692683299000521
1499369126077,-0.9136491950865948,-0.4109559777218279,0.037781338216220206
1499369126093,-0.9148699168383305,-0.4109559777218279,0.036316472114137355
1499369126109,-0.9162127107652398,-0.41168841077286933,0.03741512169069949
1499369126125,-0.9167009994659341,-0.41168841077286933,0.03790341039139378
1499369126141,-0.9164568551155869,-0.41083390554665433,0.0365606164644845
1499369126157,-0.9164568551155869,-0.41242084382391075,0.0365606164644845
1499369126173,-0.9157244220645455,-0.4122987716487372,0.03924620431830306
1499369126189,-0.9142595559624627,-0.4133974212252993,0.039002059967955915
1499369126205,-0.9134050507362477,-0.41205462729839004,0.03973449301899734
1499369126220,-0.9136491950865948,-0.41290913252460504,0.039002059967955915
1499369126236,-0.9146257724879834,-0.4110780498970015,0.03814755474174092
1499369126252,-0.9165789272907605,-0.4104676890211336,0.039124132143129486
1499369126268,-0.9177996490424962,-0.4102235446707865,0.037537193865873064
1499369126284,-0.9180437933928434,-0.4118104829480429,0.037659266041046635
1499369126300,-0.9142595559624627,-0.41290913252460504,0.03802548256656735
1499369126316,-0.9129167620355534,-0.4118104829480429,0.03607232776379021
1499369126332,-0.912184328984512,-0.41193255512321647,0.03289845120927737
1499369126348,-0.915602349889372,-0.4122987716487372,0.03558403906309593
1499369126364,-0.9188982986190584,-0.4118104829480429,0.033630884260318794
1499369126380,-0.9171892881666284,-0.4121766994735636,0.037537193865873064
1499369126396,-0.9176775768673227,-0.41205462729839004,0.03668268863965807
1499369126412,-0.9151140611886777,-0.41278706034943147,0.03839169909208806
1499369126428,-0.9132829785610741,-0.41034561684596005,0.04132143129625376
1499369126444,-0.9135271229114212,-0.41071183337148076,0.04046692607003877
1499369126460,-0.9153582055390248,-0.4109559777218279,0.03924620431830306
1499369126476,-0.9164568551155869,-0.4104676890211336,0.03607232776379021
1499369126492,-0.9171892881666284,-0.40985732814526576,0.03741512169069949
1499369126508,-0.9167009994659341,-0.4118104829480429,0.0394903486686502
1499369126524,-0.9151140611886777,-0.4121766994735636,0.036438544289310926
1499369126540,-0.9135271229114212,-0.41290913252460504,0.03729304951552592
1499369126556,-0.9135271229114212,-0.41242084382391075,0.036438544289310926
1499369126572,-0.9142595559624627,-0.4121766994735636,0.03717097734035235
1499369126588,-0.9158464942397191,-0.41034561684596005,0.037537193865873064
1499369126604,-0.9162127107652398,-0.40985732814526576,0.03790341039139378
1499369126620,-0.9160906385900662,-0.4105897611963072,0.03839169909208806
1499369126636,-0.9173113603418019,-0.41083390554665433,0.035095750362401645
1499369126652,-0.9152361333638512,-0.4125429159990843,0.036194399938963784
1499369126668,-0.9149919890135041,-0.4113221942473486,0.037659266041046635
1499369126684,-0.9154802777141984,-0.41083390554665433,0.03729304951552592
1499369126700,-0.9151140611886777,-0.41071183337148076,0.037537193865873064
1499369126716,-0.913893339436942,-0.40985732814526576,0.037537193865873064
1499369126732,-0.9165789272907605,-0.4109559777218279,0.036316472114137355
1499369126748,-0.9159685664148927,-0.4118104829480429,0.036194399938963784
1499369126764,-0.9158464942397191,-0.41156633859769576,0.035217822537575216
1499369126780,-0.9163347829404134,-0.4122987716487372,0.03692683299000521
1499369126796,-0.9160906385900662,-0.4114442664225222,0.03814755474174092
1499369126812,-0.9137712672617684,-0.41156633859769576,0.03717097734035235
1499369126828,-0.9126726176852062,-0.41083390554665433,0.036438544289310926
1499369126844,-0.9143816281376362,-0.4110780498970015,0.03692683299000521
1499369126860,-0.9176775768673227,-0.40985732814526576,0.03729304951552592
1499369126876,-0.9160906385900662,-0.41071183337148076,0.03729304951552592
1499369126892,-0.9154802777141984,-0.4110780498970015,0.03558403906309593
1499369126908,-0.9124284733348591,-0.4110780498970015,0.03436331731136022
1499369126924,-0.9125505455100327,-0.4109559777218279,0.03411917296101308
1499369126940,-0.9151140611886777,-0.41034561684596005,0.03729304951552592
1499369126956,-0.9163347829404134,-0.4101014724956129,0.03961242084382377
1499369126972,-0.9176775768673227,-0.41242084382391075,0.03851377126726163
1499369126988,-0.9154802777141984,-0.41193255512321647,0.03973449301899734
1499369127004,-0.9154802777141984,-0.4114442664225222,0.03692683299000521
1499369127020,-0.9152361333638512,-0.4104676890211336,0.03729304951552592
1499369127036,-0.9137712672617684,-0.4114442664225222,0.03802548256656735
1499369127052,-0.9137712672617684,-0.41168841077286933,0.03704890516517878
1499369127068,-0.9143816281376362,-0.4113221942473486,0.03668268863965807
1499369127084,-0.9149919890135041,-0.4092469672693979,0.03802548256656735
1499369127100,-0.9174334325169755,-0.4102235446707865,0.0357061112382695
1499369127116,-0.9158464942397191,-0.41205462729839004,0.03668268863965807
1499369127132,-0.9142595559624627,-0.41376363775082003,0.037659266041046635
1499369127148,-0.9146257724879834,-0.4126649881742579,0.038879987792782345
1499369127164,-0.9135271229114212,-0.41290913252460504,0.036438544289310926
1499369127180,-0.9140154116121155,-0.41120012207217504,0.040344853894865196
1499369127196,-0.915602349889372,-0.4104676890211336,0.03814755474174092
1499369127212,-0.9195086594949262,-0.40949111161974505,0.03826962691691449
1499369127228,-0.9177996490424962,-0.40814831769283577,0.038757915617608774
1499369127244,-0.9162127107652398,-0.4109559777218279,0.03338673990997165
1499369127260,-0.9149919890135041,-0.41034561684596005,0.03692683299000521
1499369127276,-0.9146257724879834,-0.40985732814526576,0.03533989471274879
1499369127292,-0.9153582055390248,-0.4113221942473486,0.037659266041046635
1499369127308,-0.9152361333638512,-0.4114442664225222,0.037781338216220206
1499369127324,-0.9160906385900662,-0.41205462729839004,0.03741512169069949
1499369127340,-0.9145037003128098,-0.4133974212252993,0.03961242084382377
1499369127356,-0.9149919890135041,-0.4110780498970015,0.036316472114137355
1499369127372,-0.9162127107652398,-0.4109559777218279,0.03826962691691449
1499369127388,-0.9162127107652398,-0.4114442664225222,0.03692683299000521
1499369127404,-0.9154802777141984,-0.4109559777218279,0.03704890516517878
1499369127420,-0.9148699168383305,-0.41083390554665433,0.03790341039139378
1499369127436,-0.9153582055390248,-0.4101014724956129,0.037659266041046635
1499369127452,-0.9157244220645455,-0.4113221942473486,0.03961242084382377
1499369127468,-0.9136491950865948,-0.4104676890211336,0.03973449301899734
1499369127484,-0.9141374837872891,-0.4125429159990843,0.03985656519417091
1499369127500,-0.9146257724879834,-0.4122987716487372,0.037659266041046635
1499369127516,-0.9165789272907605,-0.41156633859769576,0.03924620431830306
1499369127532,-0.9181658655680169,-0.4105897611963072,0.03839169909208806
1499369127548,-0.9174334325169755,-0.4109559777218279,0.03973449301899734
1499369127564,-0.9169451438162812,-0.4113221942473486,0.03985656519417091
1499369127580,-0.9129167620355534,-0.41071183337148076,0.03729304951552592
1499369127596,-0.9127946898603798,-0.41168841077286933,0.03546196688792236
1499369127612,-0.9142595559624627,-0.4118104829480429,0.03729304951552592
1499369127628,-0.9153582055390248,-0.4109559777218279,0.0365606164644845
1499369127644,-0.9164568551155869,-0.41120012207217504,0.03729304951552592
1499369127660,-0.9174334325169755,-0.4102235446707865,0.03741512169069949
1499369127676,-0.9159685664148927,-0.41034561684596005,0.036194399938963784
1499369127692,-0.9120622568093384,-0.41168841077286933,0.03851377126726163
1499369127708,-0.9115739681086441,-0.4114442664225222,0.04083314259555948
1499369127724,-0.9127946898603798,-0.41120012207217504,0.03692683299000521
1499369127740,-0.9134050507362477,-0.41071183337148076,0.03997863736934448
1499369127756,-0.9162127107652398,-0.40997940032043934,0.03790341039139378
1499369127772,-0.9167009994659341,-0.40997940032043934,0.03814755474174092
1499369127788,-0.9168230716411077,-0.4096131837949186,0.03985656519417091
1499369127804,-0.9162127107652398,-0.4110780498970015,0.037659266041046635
1499369127819,-0.9159685664148927,-0.4097352559700922,0.03448538948653379
1499369127835,-0.9142595559624627,-0.4104676890211336,0.03814755474174092
1499369127851,-0.9141374837872891,-0.4125429159990843,0.038879987792782345
1499369127867,-0.9154802777141984,-0.4121766994735636,0.03924620431830306
1499369127883,-0.9142595559624627,-0.41156633859769576,0.03790341039139378
1499369127899,-0.914747844663157,-0.41156633859769576,0.0357061112382695
1499369127915,-0.9165789272907605,-0.41205462729839004,0.036316472114137355
1499369127931,-0.9158464942397191,-0.41071183337148076,0.03985656519417091
1499369127947,-0.9142595559624627,-0.4113221942473486,0.03741512169069949
1499369127963,-0.9141374837872891,-0.41290913252460504,0.03692683299000521
1499369127979,-0.9145037003128098,-0.41156633859769576,0.03595025558861664
1499369127995,-0.9126726176852062,-0.41071183337148076,0.03790341039139378
1499369128011,-0.9132829785610741,-0.40997940032043934,0.03839169909208806
1499369128027,-0.9131609063859005,-0.4101014724956129,0.03839169909208806
1499369128043,-0.9148699168383305,-0.41083390554665433,0.03729304951552592
1499369128059,-0.9142595559624627,-0.4113221942473486,0.0386358434424352
1499369128075,-0.9157244220645455,-0.4110780498970015,0.0386358434424352
1499369128091,-0.9171892881666284,-0.4113221942473486,0.036438544289310926
1499369128107,-0.9176775768673227,-0.4110780498970015,0.0365606164644845
1499369128123,-0.9173113603418019,-0.4133974212252993,0.03839169909208806
1499369128139,-0.9145037003128098,-0.41327534905012575,0.03814755474174092
1499369128155,-0.9136491950865948,-0.4110780498970015,0.03729304951552592
1499369128171,-0.9129167620355534,-0.4104676890211336,0.03558403906309593
1499369128187,-0.9142595559624627,-0.41205462729839004,0.037781338216220206
1499369128203,-0.915602349889372,-0.41168841077286933,0.04058899824521234
1499369128219,-0.9153582055390248,-0.4113221942473486,0.03973449301899734
1499369128235,-0.9160906385900662,-0.41120012207217504,0.037659266041046635
1499369128251,-0.9149919890135041,-0.4105897611963072,0.03692683299000521
1499369128267,-0.9151140611886777,-0.41156633859769576,0.036316472114137355
1499369128283,-0.9146257724879834,-0.4093690394445715,0.037537193865873064
1499369128299,-0.9137712672617684,-0.41071183337148076,0.03729304951552592
1499369128315,-0.913038834210727,-0.4110780498970015,0.03704890516517878
1499369128331,-0.9152361333638512,-0.41168841077286933,0.03741512169069949
1499369128347,-0.9157244220645455,-0.41071183337148076,0.03985656519417091
1499369128363,-0.9170672159914548,-0.4096131837949186,0.036438544289310926
1499369128379,-0.9170672159914548,-0.40997940032043934,0.03741512169069949
1499369128395,-0.9169451438162812,-0.4109559777218279,0.03729304951552592
1499369128411,-0.9160906385900662,-0.4118104829480429,0.03741512169069949
1499369128427,-0.9148699168383305,-0.4113221942473486,0.03717097734035235
1499369128443,-0.913893339436942,-0.41120012207217504,0.0365606164644845
1499369128459,-0.9148699168383305,-0.4118104829480429,0.03802548256656735
1499369128475,-0.9157244220645455,-0.4105897611963072,0.03839169909208806
1499369128491,-0.9165789272907605,-0.4122987716487372,0.03924620431830306
1499369128507,-0.9157244220645455,-0.4125429159990843,0.03533989471274879
1499369128523,-0.9151140611886777,-0.41205462729839004,0.03704890516517878
1499369128539,-0.9143816281376362,-0.4105897611963072,0.037659266041046635
1499369128555,-0.9142595559624627,-0.41193255512321647,0.03717097734035235
1499369128571,-0.9151140611886777,-0.41083390554665433,0.037659266041046635
1499369128587,-0.9153582055390248,-0.4093690394445715,0.03717097734035235
1499369128603,-0.9160906385900662,-0.41120012207217504,0.03814755474174092
1499369128619,-0.9158464942397191,-0.4118104829480429,0.03997863736934448
1499369128635,-0.9177996490424962,-0.41156633859769576,0.03997863736934448
1499369128651,-0.9158464942397191,-0.4101014724956129,0.03985656519417091
1499369128667,-0.9149919890135041,-0.4109559777218279,0.03741512169069949
1499369128683,-0.9173113603418019,-0.41242084382391075,0.03936827649347663
1499369128699,-0.9168230716411077,-0.4114442664225222,0.037659266041046635
1499369128715,-0.9176775768673227,-0.4118104829480429,0.03607232776379021
1499369128731,-0.9162127107652398,-0.4105897611963072,0.03717097734035235
1499369128747,-0.9145037003128098,-0.41205462729839004,0.038757915617608774
1499369128763,-0.9146257724879834,-0.41156633859769576,0.03704890516517878
1499369128779,-0.9164568551155869,-0.4118104829480429,0.04071107042038591
1499369128795,-0.9167009994659341,-0.41205462729839004,0.03997863736934448
1499369128811,-0.9143816281376362,-0.4104676890211336,0.0394903486686502
1499369128827,-0.9137712672617684,-0.4113221942473486,0.03729304951552592
1499369128843,-0.9136491950865948,-0.4104676890211336,0.03704890516517878
1499369128859,-0.9152361333638512,-0.4109559777218279,0.03802548256656735
1499369128875,-0.9149919890135041,-0.4122987716487372,0.03448538948653379
1499369128891,-0.915602349889372,-0.4121766994735636,0.03546196688792236
1499369128907,-0.9140154116121155,-0.4122987716487372,0.03582818341344307
1499369128923,-0.9149919890135041,-0.4110780498970015,0.0365606164644845
1499369128939,-0.915602349889372,-0.4102235446707865,0.038757915617608774
1499369128955,-0.9158464942397191,-0.41034561684596005,0.03595025558861664
1499369128971,-0.9163347829404134,-0.41071183337148076,0.0357061112382695
1499369128987,-0.9162127107652398,-0.4096131837949186,0.03607232776379021
1499369129003,-0.914747844663157,-0.41071183337148076,0.03533989471274879
1499369129019,-0.9157244220645455,-0.41034561684596005,0.03985656519417091
1499369129035,-0.9158464942397191,-0.4114442664225222,0.0365606164644845
1499369129051,-0.915602349889372,-0.41083390554665433,0.03582818341344307
1499369129067,-0.9163347829404134,-0.41193255512321647,0.03826962691691449
1499369129083,-0.9148699168383305,-0.41071183337148076,0.036194399938963784
1499369129099,-0.9163347829404134,-0.41120012207217504,0.03607232776379021
1499369129115,-0.9152361333638512,-0.4102235446707865,0.034973678187228074
1499369129131,-0.9159685664148927,-0.40985732814526576,0.039124132143129486
1499369129147,-0.9145037003128098,-0.4083924620431829,0.03936827649347663
1499369129163,-0.9145037003128098,-0.4113221942473486,0.03802548256656735
1499369129179,-0.9151140611886777,-0.40997940032043934,0.037537193865873064
1499369129195,-0.9170672159914548,-0.4096131837949186,0.03692683299000521
1499369129211,-0.9188982986190584,-0.4092469672693979,0.03692683299000521
1499369129227,-0.9159685664148927,-0.4114442664225222,0.0386358434424352
1499369129243,-0.9127946898603798,-0.4114442664225222,0.03595025558861664
1499369129259,-0.9126726176852062,-0.41156633859769576,0.033875028610665936
1499369129275,-0.9145037003128098,-0.41083390554665433,0.03692683299000521
1499369129291,-0.9165789272907605,-0.41120012207217504,0.03607232776379021
1499369129307,-0.9179217212176698,-0.4113221942473486,0.04107728694590662
1499369129323,-0.9164568551155869,-0.41120012207217504,0.040222781719691625
1499369129339,-0.9149919890135041,-0.4110780498970015,0.03692683299000521
1499369129355,-0.9141374837872891,-0.40997940032043934,0.038757915617608774
1499369129371,-0.9137712672617684,-0.4097352559700922,0.039002059967955915
1499369129387,-0.9142595559624627,-0.4093690394445715,0.03851377126726163
1499369129403,-0.9168230716411077,-0.4096131837949186,0.03717097734035235
1499369129418,-0.915602349889372,-0.4096131837949186,0.03558403906309593
1499369129434,-0.9153582055390248,-0.40997940032043934,0.03680476081483164
