Timestamp (ms),Gyro X (°/s),Gyro Y (°/s),Gyro Z (°/s)
1499369103739,0.6408789196611906,-4.730296787975931,-1.8005645838102282
1499369103755,0.8850232700083325,-5.401693751430457,-1.739528496223329
1499369103771,2.166781109330941,-6.378271152819025,-1.4343480582895154
1499369103787,3.814755474174035,-7.537956816968062,-1.3733119707026162
1499369103803,4.669260700389032,-8.392462043183059,-1.4953841458761872
1499369103819,4.180971999694748,-8.819714656290444,-1.8005645838102282
1499369103835,2.4719615472647547,-8.697642481116873,-1.8616006713969
1499369103851,0.7629510948347615,-8.6366063935302,-2.227817196917613
1499369103867,0.5188067444876197,-9.185931181811156,-2.532997634851654
1499369103883,0.09155413138023505,-10.833905546654478,-2.8381780727854675
1499369103899,1.3122758831159445,-12.603952086671143,-3.0212863355459376
1499369103915,1.6174563210497581,-13.58052948805971,-3.3264667734797513
1499369103930,1.0070954451819034,-14.129854276340893,-3.7537193865873633
1499369103946,0.15259021896690683,-14.679179064621849,-3.997863736934505
1499369103962,-0.09155413138023505,-15.289539940489703,-3.997863736934505
1499369103978,-0.9460593575952316,-15.838864728770886,-4.242008087281647
1499369103994,-0.7629510948347615,-16.02197299153113,-4.242008087281647
1499369104010,-0.15259021896690683,-16.510261692225413,-4.180971999694748
1499369104026,-1.6174563210497581,-16.510261692225413,-4.60822461280236
1499369104042,-1.8616006713969,-16.44922560463874,-4.9134050507361735
1499369104058,-2.8992141603723667,-16.02197299153113,-5.3406576638437855
1499369104074,-7.2938124666209205,-17.66994735637445,-6.012054627298312
1499369104090,-7.11070420386045,-22.61387045090396,-5.706874189364498
1499369104106,-4.60822461280236,-29.694056610971074,-4.364080262455218
1499369104122,-8.758678568703772,-30.060273136491787,-4.60822461280236
1499369104138,-15.533684290836845,-30.30441748683893,-5.645838101777599
1499369104154,-19.073777370870403,-32.19653620202962,-6.378271152819025
1499369104170,-20.477607385366582,-33.72243839169914,-6.9886320286868795
1499369104186,-22.125581750209676,-33.41725795376533,-7.537956816968062
1499369104202,-20.17242694743254,-30.975814450293683,-7.782101167315204
1499369104218,-14.068818188753994,-26.82536049439227,-7.232776379034021
1499369104234,-8.33142595559616,-20.35553521019301,-6.378271152819025
1499369104250,-1.4953841458761872,-11.932555123216616,-5.279621576256886
1499369104266,3.814755474174035,-4.669260700389032,-4.303044174868319
1499369104282,3.2043945983061803,-2.105745021744042,-4.242008087281647
1499369104298,1.0681315327688026,-3.4485389486533222,-3.875791561760934
1499369104314,1.4953841458761872,-5.706874189364498,-2.8381780727854675
1499369104330,2.5940337224383256,-6.744487678339738,-1.9226367589837992
1499369104346,2.4719615472647547,-5.279621576256886,-1.8005645838102282
1499369104362,1.9226367589837992,-3.5095750362402214,-2.105745021744042
1499369104378,2.166781109330941,-3.1433585107195086,-2.04470893415737
1499369104394,2.166781109330941,-3.570611123826893,-1.9226367589837992
1499369104410,1.983672846570471,-4.058899824521177,-1.8616006713969
1499369104426,1.3733119707026162,-3.3875028610666504,-1.9226367589837992
1499369104442,1.3733119707026162,-2.410925459678083,-1.8005645838102282
1499369104458,2.410925459678083,-2.04470893415737,-1.4953841458761872
1499369104474,2.9602502479590385,-1.9226367589837992,-1.1291676203554744
1499369104490,2.8992141603723667,-1.6784924086366573,-1.0681315327688026
1499369104506,2.8381780727854675,-1.3733119707026162,-1.0070954451819034
1499369104522,3.3264667734797513,-1.2512397955290453,-0.6408789196611906
1499369104538,3.6316472114137923,-1.1291676203554744,-0.45777065690094787
1499369104554,3.3875028610666504,-0.8850232700083325,-0.33569848172737693
1499369104570,3.2654306858930795,-0.8239871824216607,-0.03051804379333589
1499369104586,3.3264667734797513,-1.0070954451819034,0.213626306553806
1499369104602,3.7537193865873633,-1.1291676203554744,0.5188067444876197
1499369104618,4.791332875562603,-1.2512397955290453,0.8850232700083325
1499369104634,5.584802014190927,-1.3733119707026162,1.2512397955290453
1499369104650,5.279621576256886,-1.3122758831159445,1.1902037079423735
1499369104666,3.570611123826893,-0.5798428320745188,0.7019150072480898
1499369104682,2.655069810025225,0.03051804379333589,0.3967345693140487
1499369104698,3.2043945983061803,-0.15259021896690683,0.3967345693140487
1499369104714,3.814755474174035,-0.3967345693140487,0.45777065690094787
1499369104730,3.2043945983061803,-0.213626306553806,0.09155413138023505
1499369104746,2.105745021744042,0.09155413138023505,-0.3967345693140487
1499369104762,1.3733119707026162,0.15259021896690683,-0.7629510948347615
1499369104778,1.4953841458761872,-0.15259021896690683,-0.8850232700083325
1499369104794,1.6174563210497581,-0.3967345693140487,-0.9460593575952316
1499369104810,1.6174563210497581,-0.5798428320745188,-1.0681315327688026
1499369104826,1.5564202334630863,-0.8850232700083325,-1.1902037079423735
1499369104842,1.4953841458761872,-1.0681315327688026,-1.3122758831159445
1499369104858,1.5564202334630863,-1.1902037079423735,-1.3733119707026162
1499369104874,1.6784924086366573,-1.1902037079423735,-1.3733119707026162
1499369104890,1.6784924086366573,-1.0681315327688026,-1.4343480582895154
1499369104906,1.4343480582895154,-0.9460593575952316,-1.4343480582895154
1499369104922,1.4953841458761872,-0.9460593575952316,-1.2512397955290453
1499369104938,1.5564202334630863,-0.8850232700083325,-1.1902037079423735
1499369104954,1.3733119707026162,-0.45777065690094787,-1.2512397955290453
1499369104970,1.3122758831159445,-0.09155413138023505,-1.2512397955290453
1499369104986,1.6174563210497581,0.15259021896690683,-1.1291676203554744
1499369105002,1.9226367589837992,0.15259021896690683,-1.0070954451819034
1499369105018,1.983672846570471,0.2746623941404778,-0.9460593575952316
1499369105034,1.9226367589837992,0.45777065690094787,-0.8239871824216607
1499369105050,2.227817196917613,0.45777065690094787,-0.6408789196611906
1499369105066,2.532997634851654,0.45777065690094787,-0.45777065690094787
1499369105082,2.8992141603723667,0.5188067444876197,-0.3967345693140487
1499369105098,3.1433585107195086,0.5188067444876197,-0.2746623941404778
1499369105114,3.3264667734797513,0.3967345693140487,-0.2746623941404778
1499369105130,3.570611123826893,0.5188067444876197,-0.213626306553806
1499369105146,4.058899824521177,0.7019150072480898,-0.03051804379333589
1499369105162,4.60822461280236,0.8239871824216607,0.09155413138023505
1499369105178,4.974441138323073,0.8850232700083325,0.2746623941404778
1499369105194,5.462729839017356,0.9460593575952316,0.3967345693140487
1499369105210,5.95101853971164,1.1902037079423735,0.6408789196611906
1499369105226,7.2938124666209205,1.4343480582895154,0.9460593575952316
1499369105242,7.2938124666209205,1.3733119707026162,1.0681315327688026
1499369105258,7.843137254901876,1.8616006713969,1.0070954451819034
1499369105274,6.927595941100208,2.166781109330941,0.6408789196611906
1499369105290,5.706874189364498,2.410925459678083,0.2746623941404778
1499369105306,5.157549401083315,2.8992141603723667,-0.03051804379333589
1499369105322,5.0354772259097444,3.3264667734797513,-0.213626306553806
1499369105338,4.9134050507361735,3.5095750362402214,-0.3967345693140487
1499369105354,3.936827649347606,3.7537193865873633,-0.6408789196611906
1499369105370,3.5095750362402214,3.814755474174035,-0.7019150072480898
1499369105386,3.0212863355459376,3.814755474174035,-0.7019150072480898
1499369105402,3.2654306858930795,3.6316472114137923,-0.5188067444876197
1499369105418,2.9602502479590385,3.4485389486533222,-0.3967345693140487
1499369105434,3.3264667734797513,3.3875028610666504,-0.213626306553806
1499369105450,3.570611123826893,3.1433585107195086,-0.213626306553806
1499369105466,3.3264667734797513,3.0823224231326094,-0.2746623941404778
1499369105482,3.3264667734797513,2.8992141603723667,-0.213626306553806
1499369105498,2.9602502479590385,2.5940337224383256,-0.213626306553806
1499369105514,2.8381780727854675,2.3498893720911838,-0.2746623941404778
1499369105530,2.410925459678083,2.105745021744042,-0.33569848172737693
1499369105546,2.410925459678083,1.8005645838102282,-0.5188067444876197
1499369105562,2.410925459678083,1.4343480582895154,-0.5188067444876197
1499369105578,2.105745021744042,1.1291676203554744,-0.7019150072480898
1499369105594,2.105745021744042,1.0070954451819034,-0.7019150072480898
1499369105610,2.04470893415737,0.6408789196611906,-0.7629510948347615
1499369105626,1.739528496223329,0.33569848172737693,-0.8239871824216607
1499369105641,1.739528496223329,0.03051804379333589,-0.7629510948347615
1499369105657,1.6174563210497581,-0.15259021896690683,-0.8850232700083325
1499369105673,1.5564202334630863,-0.2746623941404778,-0.8239871824216607
1499369105689,1.739528496223329,-0.5188067444876197,-0.7629510948347615
1499369105705,1.739528496223329,-0.6408789196611906,-0.7629510948347615
1499369105721,1.5564202334630863,-0.6408789196611906,-0.8850232700083325
1499369105737,1.5564202334630863,-0.6408789196611906,-0.8850232700083325
1499369105753,1.6784924086366573,-0.7629510948347615,-0.8239871824216607
1499369105769,1.9226367589837992,-0.7019150072480898,-0.8239871824216607
1499369105785,1.739528496223329,-0.6408789196611906,-0.8850232700083325
1499369105801,1.739528496223329,-0.5188067444876197,-0.8850232700083325
1499369105817,1.5564202334630863,-0.45777065690094787,-0.9460593575952316
1499369105833,1.5564202334630863,-0.45777065690094787,-0.9460593575952316
1499369105849,1.4953841458761872,-0.45777065690094787,-1.0070954451819034
1499369105865,1.4953841458761872,-0.3967345693140487,-0.9460593575952316
1499369105881,1.4953841458761872,-0.45777065690094787,-0.9460593575952316
1499369105897,1.6174563210497581,-0.33569848172737693,-0.8850232700083325
1499369105913,1.6174563210497581,-0.33569848172737693,-0.8850232700083325
1499369105929,1.6174563210497581,-0.2746623941404778,-0.8850232700083325
1499369105945,1.6784924086366573,-0.33569848172737693,-0.8850232700083325
1499369105961,1.6784924086366573,-0.33569848172737693,-0.8239871824216607
1499369105977,1.6784924086366573,-0.33569848172737693,-0.7629510948347615
1499369105993,1.739528496223329,-0.45777065690094787,-0.6408789196611906
1499369106009,1.8005645838102282,-0.5188067444876197,-0.6408789196611906
1499369106025,1.739528496223329,-0.5798428320745188,-0.5798428320745188
1499369106041,1.8005645838102282,-0.6408789196611906,-0.6408789196611906
1499369106057,1.8616006713969,-0.6408789196611906,-0.7019150072480898
1499369106073,1.8616006713969,-0.7019150072480898,-0.7629510948347615
1499369106089,1.9226367589837992,-0.7629510948347615,-0.8239871824216607
1499369106105,1.8616006713969,-0.8239871824216607,-0.8850232700083325
1499369106121,1.8005645838102282,-0.8239871824216607,-0.8239871824216607
1499369106137,1.739528496223329,-1.0070954451819034,-0.8239871824216607
1499369106153,1.8005645838102282,-1.0681315327688026,-0.9460593575952316
1499369106169,1.739528496223329,-1.0681315327688026,-1.0070954451819034
1499369106185,1.8005645838102282,-1.1291676203554744,-1.0070954451819034
1499369106201,1.6784924086366573,-1.1902037079423735,-0.9460593575952316
1499369106217,1.739528496223329,-1.1902037079423735,-0.9460593575952316
1499369106233,1.8005645838102282,-1.1291676203554744,-0.8850232700083325
1499369106249,1.8616006713969,-1.1902037079423735,-0.8850232700083325
1499369106265,1.9226367589837992,-1.1291676203554744,-0.8850232700083325
1499369106281,1.8616006713969,-1.1291676203554744,-0.8850232700083325
1499369106297,1.8616006713969,-1.1291676203554744,-0.9460593575952316
1499369106313,1.8005645838102282,-1.2512397955290453,-0.9460593575952316
1499369106329,1.8005645838102282,-1.1291676203554744,-0.8850232700083325
1499369106345,1.739528496223329,-1.1291676203554744,-0.8850232700083325
1499369106361,1.739528496223329,-1.1291676203554744,-0.8850232700083325
1499369106377,1.8616006713969,-1.0681315327688026,-0.9460593575952316
1499369106393,1.9226367589837992,-1.0070954451819034,-1.0070954451819034
1499369106409,1.983672846570471,-1.0070954451819034,-0.9460593575952316
1499369106425,1.8616006713969,-1.0070954451819034,-0.9460593575952316
1499369106441,1.739528496223329,-1.0070954451819034,-1.0070954451819034
1499369106457,1.6784924086366573,-0.9460593575952316,-1.0070954451819034
1499369106473,1.6784924086366573,-1.0070954451819034,-1.0070954451819034
1499369106489,1.739528496223329,-1.0070954451819034,-0.9460593575952316
1499369106505,1.739528496223329,-0.9460593575952316,-1.0070954451819034
1499369106521,1.739528496223329,-1.0070954451819034,-1.0681315327688026
1499369106537,1.739528496223329,-0.9460593575952316,-1.0681315327688026
1499369106553,1.8005645838102282,-1.0070954451819034,-1.0681315327688026
1499369106569,1.739528496223329,-1.0681315327688026,-0.9460593575952316
1499369106585,1.739528496223329,-1.1902037079423735,-0.8850232700083325
1499369106601,1.8005645838102282,-1.2512397955290453,-0.8239871824216607
1499369106617,1.8616006713969,-1.3122758831159445,-0.7629510948347615
1499369106633,1.8616006713969,-1.2512397955290453,-0.7629510948347615
1499369106649,1.8616006713969,-1.2512397955290453,-0.7019150072480898
1499369106665,1.9226367589837992,-1.2512397955290453,-0.8239871824216607
1499369106681,1.9226367589837992,-1.1291676203554744,-0.7629510948347615
1499369106697,1.8616006713969,-1.1902037079423735,-0.8239871824216607
1499369106713,1.8616006713969,-1.1902037079423735,-0.8850232700083325
1499369106729,1.8005645838102282,-1.1902037079423735,-0.9460593575952316
1499369106745,1.739528496223329,-1.1902037079423735,-1.0681315327688026
1499369106761,1.739528496223329,-1.1902037079423735,-1.0070954451819034
1499369106777,1.739528496223329,-1.1902037079423735,-1.0681315327688026
1499369106793,1.739528496223329,-1.1902037079423735,-1.0070954451819034
1499369106809,1.8005645838102282,-1.1902037079423735,-0.9460593575952316
1499369106825,1.739528496223329,-1.1902037079423735,-0.9460593575952316
1499369106841,1.8616006713969,-1.2512397955290453,-0.8850232700083325
1499369106857,1.8616006713969,-1.1902037079423735,-0.8850232700083325
1499369106873,1.9226367589837992,-1.1902037079423735,-0.8239871824216607
1499369106889,1.8616006713969,-1.1291676203554744,-0.8850232700083325
1499369106905,1.8005645838102282,-1.1291676203554744,-0.8850232700083325
1499369106921,1.8005645838102282,-1.1902037079423735,-0.9460593575952316
1499369106937,1.8005645838102282,-1.1902037079423735,-0.9460593575952316
1499369106953,1.8005645838102282,-1.1902037079423735,-0.9460593575952316
1499369106969,1.739528496223329,-1.1902037079423735,-0.8850232700083325
1499369106985,1.8005645838102282,-1.1291676203554744,-0.8850232700083325
1499369107001,1.8616006713969,-1.1902037079423735,-0.9460593575952316
1499369107017,1.8005645838102282,-1.1902037079423735,-0.9460593575952316
1499369107033,1.739528496223329,-1.1902037079423735,-1.0070954451819034
1499369107049,1.6784924086366573,-1.1902037079423735,-1.0070954451819034
1499369107065,1.6784924086366573,-1.1902037079423735,-1.0681315327688026
1499369107081,1.6784924086366573,-1.1902037079423735,-0.9460593575952316
1499369107097,1.739528496223329,-1.1902037079423735,-0.9460593575952316
1499369107113,1.8005645838102282,-1.1902037079423735,-0.9460593575952316
1499369107129,1.739528496223329,-1.0681315327688026,-0.8850232700083325
1499369107144,1.8005645838102282,-1.0681315327688026,-0.9460593575952316
1499369107160,1.8616006713969,-1.1291676203554744,-1.0070954451819034
1499369107176,1.8616006713969,-1.1291676203554744,-0.9460593575952316
1499369107192,1.8005645838102282,-1.1291676203554744,-0.8239871824216607
1499369107208,1.8005645838102282,-1.1291676203554744,-0.8239871824216607
1499369107224,1.739528496223329,-1.1291676203554744,-0.8239871824216607
1499369107240,1.739528496223329,-1.1902037079423735,-0.8239871824216607
1499369107256,1.8616006713969,-1.1902037079423735,-0.8239871824216607
1499369107272,1.983672846570471,-1.1902037079423735,-0.8850232700083325
1499369107288,1.983672846570471,-1.1902037079423735,-0.8850232700083325
1499369107304,1.8616006713969,-1.1902037079423735,-0.8850232700083325
1499369107320,1.739528496223329,-1.1291676203554744,-0.8850232700083325
1499369107336,1.8005645838102282,-1.2512397955290453,-0.8850232700083325
1499369107352,1.739528496223329,-1.1902037079423735,-0.9460593575952316
1499369107368,1.8005645838102282,-1.1902037079423735,-1.0070954451819034
1499369107384,1.8616006713969,-1.1291676203554744,-1.0070954451819034
1499369107400,1.8005645838102282,-1.1902037079423735,-1.0070954451819034
1499369107416,1.8005645838102282,-1.1902037079423735,-1.0070954451819034
1499369107432,1.8005645838102282,-1.1291676203554744,-0.9460593575952316
1499369107448,1.739528496223329,-1.1902037079423735,-0.8850232700083325
1499369107464,1.739528496223329,-1.2512397955290453,-0.8850232700083325
1499369107480,1.8005645838102282,-1.1291676203554744,-0.8239871824216607
1499369107496,1.8616006713969,-1.1902037079423735,-0.8850232700083325
1499369107512,1.8005645838102282,-1.1902037079423735,-0.8850232700083325
1499369107528,1.9226367589837992,-1.2512397955290453,-0.8850232700083325
1499369107544,1.8005645838102282,-1.2512397955290453,-0.8239871824216607
1499369107560,1.739528496223329,-1.2512397955290453,-0.8850232700083325
1499369107576,1.739528496223329,-1.1902037079423735,-0.8850232700083325
1499369107592,1.8005645838102282,-1.1291676203554744,-0.9460593575952316
1499369107608,1.8616006713969,-1.0681315327688026,-1.0070954451819034
1499369107624,1.8616006713969,-1.1291676203554744,-0.9460593575952316
1499369107640,1.8616006713969,-1.1902037079423735,-0.9460593575952316
1499369107656,1.8616006713969,-1.1902037079423735,-0.9460593575952316
1499369107672,1.739528496223329,-1.1902037079423735,-1.0070954451819034
1499369107688,1.6784924086366573,-1.1902037079423735,-0.9460593575952316
1499369107704,1.6784924086366573,-1.1902037079423735,-0.9460593575952316
1499369107720,1.6784924086366573,-1.1291676203554744,-0.8850232700083325
1499369107736,1.739528496223329,-1.1291676203554744,-0.8850232700083325
1499369107752,1.8616006713969,-1.0681315327688026,-0.8239871824216607
1499369107768,2.04470893415737,-1.0070954451819034,-0.7629510948347615
1499369107784,1.983672846570471,-1.0681315327688026,-0.8239871824216607
1499369107800,1.983672846570471,-1.0681315327688026,-0.8850232700083325
1499369107816,1.9226367589837992,-1.0681315327688026,-0.8850232700083325
1499369107832,1.8005645838102282,-1.0681315327688026,-0.9460593575952316
1499369107848,1.739528496223329,-1.1291676203554744,-0.8850232700083325
1499369107864,1.739528496223329,-1.1902037079423735,-0.8239871824216607
1499369107880,1.8005645838102282,-1.1902037079423735,-0.8850232700083325
1499369107896,1.9226367589837992,-1.1902037079423735,-0.8850232700083325
1499369107912,1.8616006713969,-1.1902037079423735,-0.8850232700083325
1499369107928,1.8005645838102282,-1.1902037079423735,-0.8850232700083325
1499369107944,1.8616006713969,-1.1902037079423735,-0.9460593575952316
1499369107960,1.739528496223329,-1.2512397955290453,-1.0070954451819034
1499369107976,1.6784924086366573,-1.2512397955290453,-0.8850232700083325
1499369107992,1.6784924086366573,-1.2512397955290453,-0.9460593575952316
1499369108008,1.739528496223329,-1.1902037079423735,-0.9460593575952316
1499369108024,1.8005645838102282,-1.1291676203554744,-0.9460593575952316
1499369108040,1.8005645838102282,-1.1291676203554744,-1.0070954451819034
1499369108056,1.8616006713969,-1.0681315327688026,-1.0070954451819034
1499369108072,1.9226367589837992,-1.1291676203554744,-1.0070954451819034
1499369108088,1.8616006713969,-1.2512397955290453,-0.9460593575952316
1499369108104,1.739528496223329,-1.1902037079423735,-0.8850232700083325
1499369108120,1.739528496223329,-1.1902037079423735,-0.8239871824216607
1499369108136,1.8616006713969,-1.2512397955290453,-0.9460593575952316
1499369108152,1.9226367589837992,-1.2512397955290453,-0.8850232700083325
1499369108168,1.8616006713969,-1.2512397955290453,-0.8850232700083325
1499369108184,1.8616006713969,-1.2512397955290453,-0.8850232700083325
1499369108200,1.8616006713969,-1.1902037079423735,-0.9460593575952316
1499369108216,1.739528496223329,-1.2512397955290453,-0.9460593575952316
1499369108232,1.739528496223329,-1.2512397955290453,-1.0070954451819034
1499369108248,1.739528496223329,-1.2512397955290453,-1.0070954451819034
1499369108264,1.8005645838102282,-1.1902037079423735,-1.0681315327688026
1499369108280,1.6784924086366573,-1.1291676203554744,-1.0681315327688026
1499369108296,1.739528496223329,-1.1902037079423735,-1.0681315327688026
1499369108312,1.8005645838102282,-1.1902037079423735,-1.0070954451819034
1499369108328,1.739528496223329,-1.1902037079423735,-1.0681315327688026
1499369108344,1.739528496223329,-1.1902037079423735,-0.9460593575952316
1499369108360,1.739528496223329,-1.1291676203554744,-0.9460593575952316
1499369108376,1.8005645838102282,-1.1902037079423735,-0.9460593575952316
1499369108392,1.739528496223329,-1.1902037079423735,-0.8850232700083325
1499369108408,1.8616006713969,-1.2512397955290453,-0.8850232700083325
1499369108424,1.8005645838102282,-1.1902037079423735,-0.8850232700083325
1499369108440,1.739528496223329,-1.1902037079423735,-0.8850232700083325
1499369108456,1.739528496223329,-1.1902037079423735,-0.8850232700083325
1499369108472,1.8005645838102282,-1.2512397955290453,-0.8850232700083325
1499369108488,1.8005645838102282,-1.1902037079423735,-0.7629510948347615
1499369108504,1.8616006713969,-1.1291676203554744,-0.8239871824216607
1499369108520,1.8005645838102282,-1.1291676203554744,-0.8850232700083325
1499369108536,1.739528496223329,-1.1291676203554744,-0.8850232700083325
1499369108552,1.8005645838102282,-1.1291676203554744,-0.8850232700083325
1499369108568,1.739528496223329,-1.1902037079423735,-0.9460593575952316
1499369108584,1.8005645838102282,-1.2512397955290453,-1.0070954451819034
1499369108600,1.8616006713969,-1.1902037079423735,-0.9460593575952316
1499369108616,1.8005645838102282,-1.2512397955290453,-1.0681315327688026
1499369108632,1.8005645838102282,-1.2512397955290453,-1.0070954451819034
1499369108648,1.739528496223329,-1.1902037079423735,-1.0070954451819034
1499369108664,1.6784924086366573,-1.1902037079423735,-0.8850232700083325
1499369108680,1.8005645838102282,-1.1902037079423735,-0.8850232700083325
1499369108696,1.739528496223329,-1.1902037079423735,-0.9460593575952316
1499369108712,1.739528496223329,-1.2512397955290453,-0.8850232700083325
1499369108728,1.8005645838102282,-1.2512397955290453,-0.8850232700083325
1499369108744,1.8005645838102282,-1.1902037079423735,-0.8850232700083325
1499369108760,1.8005645838102282,-1.2512397955290453,-0.8850232700083325
1499369108775,1.739528496223329,-1.1902037079423735,-0.8850232700083325
1499369108791,1.739528496223329,-1.2512397955290453,-0.8850232700083325
1499369108807,1.8005645838102282,-1.1902037079423735,-0.8850232700083325
1499369108823,1.8005645838102282,-1.1902037079423735,-0.8850232700083325
1499369108839,1.8005645838102282,-1.1902037079423735,-0.9460593575952316
1499369108855,1.739528496223329,-1.2512397955290453,-0.9460593575952316
1499369108871,1.739528496223329,-1.1902037079423735,-0.9460593575952316
1499369108887,1.6784924086366573,-1.1291676203554744,-0.9460593575952316
1499369108903,1.739528496223329,-1.1902037079423735,-0.9460593575952316
1499369108919,1.739528496223329,-1.2512397955290453,-0.9460593575952316
1499369108935,1.6784924086366573,-1.2512397955290453,-1.0070954451819034
1499369108951,1.6784924086366573,-1.1291676203554744,-0.9460593575952316
1499369108967,1.739528496223329,-1.1291676203554744,-0.9460593575952316
1499369108983,1.8005645838102282,-1.1902037079423735,-0.8850232700083325
1499369108999,1.739528496223329,-1.2512397955290453,-0.8850232700083325
1499369109015,1.739528496223329,-1.1902037079423735,-0.8850232700083325
1499369109031,1.8005645838102282,-1.1291676203554744,-0.8239871824216607
1499369109047,1.8616006713969,-1.1291676203554744,-0.8239871824216607
1499369109063,1.8005645838102282,-1.1291676203554744,-0.7629510948347615
1499369109079,1.9226367589837992,-1.1291676203554744,-0.7019150072480898
1499369109095,1.983672846570471,-1.3733119707026162,-0.7019150072480898
1499369109111,2.105745021744042,-1.2512397955290453,-0.7629510948347615
1499369109127,2.105745021744042,-1.1902037079423735,-0.7629510948347615
1499369109143,1.9226367589837992,-1.1902037079423735,-0.8239871824216607
1499369109159,1.8005645838102282,-1.1902037079423735,-0.8850232700083325
1499369109175,1.8005645838102282,-1.1902037079423735,-0.9460593575952316
1499369109191,1.739528496223329,-1.1902037079423735,-1.0070954451819034
1499369109207,1.739528496223329,-1.1902037079423735,-1.0070954451819034
1499369109223,1.6784924086366573,-1.1902037079423735,-1.0070954451819034
1499369109239,1.6784924086366573,-1.1902037079423735,-0.9460593575952316
1499369109255,1.6174563210497581,-1.1902037079423735,-1.0070954451819034
1499369109271,1.6174563210497581,-1.1902037079423735,-0.9460593575952316
1499369109287,1.739528496223329,-1.1291676203554744,-0.9460593575952316
1499369109303,1.8005645838102282,-1.1291676203554744,-0.9460593575952316
1499369109319,1.8616006713969,-1.1291676203554744,-0.8850232700083325
1499369109335,1.8005645838102282,-1.1902037079423735,-0.8239871824216607
1499369109351,1.8005645838102282,-1.1902037079423735,-0.8239871824216607
1499369109367,1.8616006713969,-1.1902037079423735,-0.8239871824216607
1499369109383,1.8616006713969,-1.1902037079423735,-0.8239871824216607
1499369109399,1.739528496223329,-1.2512397955290453,-0.8239871824216607
1499369109415,1.6784924086366573,-1.3122758831159445,-0.8850232700083325
1499369109431,1.6784924086366573,-1.2512397955290453,-0.9460593575952316
1499369109447,1.739528496223329,-1.2512397955290453,-1.0070954451819034
1499369109463,1.6784924086366573,-1.2512397955290453,-1.0681315327688026
1499369109479,1.6174563210497581,-1.2512397955290453,-1.0681315327688026
1499369109495,1.6784924086366573,-1.2512397955290453,-1.0070954451819034
1499369109511,1.739528496223329,-1.2512397955290453,-0.9460593575952316
1499369109527,1.739528496223329,-1.1902037079423735,-1.0070954451819034
1499369109543,1.6784924086366573,-1.1902037079423735,-0.9460593575952316
1499369109559,1.6784924086366573,-1.1902037079423735,-0.8850232700083325
1499369109575,1.6784924086366573,-1.1902037079423735,-0.9460593575952316
1499369109591,1.739528496223329,-1.1902037079423735,-0.8239871824216607
1499369109607,1.6784924086366573,-1.1291676203554744,-0.8850232700083325
1499369109623,1.6174563210497581,-1.1291676203554744,-0.8239871824216607
1499369109639,1.6784924086366573,-1.0681315327688026,-0.7629510948347615
1499369109655,1.6784924086366573,-1.0681315327688026,-0.7629510948347615
1499369109671,1.8616006713969,-1.1291676203554744,-0.7019150072480898
1499369109687,1.983672846570471,-1.0070954451819034,-0.7019150072480898
1499369109703,2.04470893415737,-0.9460593575952316,-0.7019150072480898
1499369109719,1.8616006713969,-0.9460593575952316,-0.6408789196611906
1499369109735,2.04470893415737,-0.8850232700083325,-0.6408789196611906
1499369109751,2.04470893415737,-0.8239871824216607,-0.5798428320745188
1499369109767,2.166781109330941,-0.7629510948347615,-0.5798428320745188
1499369109783,2.3498893720911838,-0.7629510948347615,-0.6408789196611906
1499369109799,2.04470893415737,-0.7629510948347615,-0.7629510948347615
1499369109815,1.9226367589837992,-0.7629510948347615,-0.8239871824216607
1499369109831,1.8005645838102282,-0.8850232700083325,-0.9460593575952316
1499369109847,1.8005645838102282,-0.8850232700083325,-0.9460593575952316
1499369109863,1.8616006713969,-0.8850232700083325,-0.8850232700083325
1499369109879,1.983672846570471,-0.8850232700083325,-0.9460593575952316
1499369109895,1.983672846570471,-0.8850232700083325,-0.9460593575952316
1499369109911,1.983672846570471,-0.9460593575952316,-0.8850232700083325
1499369109927,1.8616006713969,-0.9460593575952316,-1.0070954451819034
1499369109943,1.8616006713969,-1.0070954451819034,-1.0070954451819034
1499369109959,1.8616006713969,-1.0070954451819034,-1.0070954451819034
1499369109975,1.8005645838102282,-1.0681315327688026,-1.0070954451819034
1499369109991,1.6784924086366573,-1.1291676203554744,-0.9460593575952316
1499369110007,1.739528496223329,-1.1902037079423735,-0.9460593575952316
1499369110023,1.8005645838102282,-1.2512397955290453,-0.9460593575952316
1499369110039,1.8616006713969,-1.3122758831159445,-0.8850232700083325
1499369110055,1.8005645838102282,-1.3122758831159445,-0.8850232700083325
1499369110071,1.8005645838102282,-1.4343480582895154,-0.9460593575952316
1499369110087,1.8005645838102282,-1.3733119707026162,-1.0070954451819034
1499369110103,1.739528496223329,-1.4343480582895154,-1.0681315327688026
1499369110119,1.739528496223329,-1.4953841458761872,-1.0681315327688026
1499369110135,1.739528496223329,-1.4953841458761872,-1.1291676203554744
1499369110151,1.739528496223329,-1.4953841458761872,-1.1291676203554744
1499369110167,1.739528496223329,-1.5564202334630863,-1.1291676203554744
1499369110183,1.8005645838102282,-1.5564202334630863,-1.0070954451819034
1499369110199,1.8005645838102282,-1.5564202334630863,-1.0070954451819034
1499369110215,1.8005645838102282,-1.5564202334630863,-0.9460593575952316
1499369110231,1.8005645838102282,-1.4953841458761872,-0.9460593575952316
1499369110247,1.8005645838102282,-1.4343480582895154,-0.8850232700083325
1499369110263,1.6784924086366573,-1.3122758831159445,-0.8239871824216607
1499369110279,1.6784924086366573,-1.3122758831159445,-0.8850232700083325
1499369110295,1.739528496223329,-1.2512397955290453,-0.8239871824216607
1499369110311,1.8005645838102282,-1.1291676203554744,-0.8239871824216607
1499369110327,1.8005645838102282,-1.0681315327688026,-0.7629510948347615
1499369110342,1.8005645838102282,-1.0681315327688026,-0.8850232700083325
1499369110358,1.8005645838102282,-1.1902037079423735,-0.9460593575952316
1499369110374,1.739528496223329,-1.1902037079423735,-0.9460593575952316
1499369110390,1.6784924086366573,-1.1902037079423735,-1.0070954451819034
1499369110406,1.6784924086366573,-1.2512397955290453,-1.0070954451819034
1499369110422,1.6174563210497581,-1.2512397955290453,-1.0070954451819034
1499369110438,1.6784924086366573,-1.3122758831159445,-1.0070954451819034
1499369110454,1.739528496223329,-1.3122758831159445,-1.0681315327688026
1499369110470,1.6784924086366573,-1.1902037079423735,-1.0070954451819034
1499369110486,1.739528496223329,-1.1291676203554744,-0.9460593575952316
1499369110502,1.739528496223329,-1.0681315327688026,-0.9460593575952316
1499369110518,1.8005645838102282,-1.0070954451819034,-0.9460593575952316
1499369110534,1.8005645838102282,-1.0070954451819034,-0.8850232700083325
1499369110550,1.8005645838102282,-1.0681315327688026,-0.8850232700083325
1499369110566,1.8005645838102282,-1.0070954451819034,-0.8850232700083325
1499369110582,1.739528496223329,-1.0681315327688026,-0.8239871824216607
1499369110598,1.8616006713969,-1.1291676203554744,-0.8239871824216607
1499369110614,1.8005645838102282,-1.1902037079423735,-0.8850232700083325
1499369110630,1.8005645838102282,-1.1902037079423735,-0.9460593575952316
1499369110646,1.739528496223329,-1.2512397955290453,-1.0070954451819034
1499369110662,1.739528496223329,-1.2512397955290453,-1.0070954451819034
1499369110678,1.739528496223329,-1.1902037079423735,-1.0681315327688026
1499369110694,1.739528496223329,-1.2512397955290453,-1.0070954451819034
1499369110710,1.739528496223329,-1.1902037079423735,-0.9460593575952316
1499369110726,1.8005645838102282,-1.0681315327688026,-0.9460593575952316
1499369110742,1.8616006713969,-1.1291676203554744,-0.9460593575952316
1499369110758,1.9226367589837992,-1.1902037079423735,-0.9460593575952316
1499369110774,1.8616006713969,-1.2512397955290453,-1.0070954451819034
1499369110790,1.739528496223329,-1.2512397955290453,-1.0070954451819034
1499369110806,1.6784924086366573,-1.3122758831159445,-0.8850232700083325
1499369110822,1.739528496223329,-1.3733119707026162,-0.8850232700083325
1499369110838,1.6784924086366573,-1.3122758831159445,-0.8850232700083325
1499369110854,1.739528496223329,-1.3122758831159445,-0.8239871824216607
1499369110870,1.8005645838102282,-1.3122758831159445,-0.8850232700083325
1499369110886,1.8005645838102282,-1.2512397955290453,-0.8850232700083325
1499369110902,1.739528496223329,-1.2512397955290453,-0.9460593575952316
1499369110918,1.739528496223329,-1.2512397955290453,-0.9460593575952316
1499369110934,1.739528496223329,-1.1902037079423735,-0.9460593575952316
1499369110950,1.739528496223329,-1.2512397955290453,-1.0070954451819034
1499369110966,1.739528496223329,-1.3122758831159445,-1.0070954451819034
1499369110982,1.739528496223329,-1.2512397955290453,-1.0070954451819034
1499369110998,1.739528496223329,-1.2512397955290453,-1.0070954451819034
1499369111014,1.739528496223329,-1.2512397955290453,-1.0070954451819034
1499369111030,1.8005645838102282,-1.2512397955290453,-0.8850232700083325
1499369111046,1.8005645838102282,-1.1902037079423735,-0.8239871824216607
1499369111062,1.9226367589837992,-1.1902037079423735,-0.8850232700083325
1499369111078,1.9226367589837992,-1.2512397955290453,-0.8850232700083325
1499369111094,1.9226367589837992,-1.2512397955290453,-0.8850232700083325
1499369111110,1.9226367589837992,-1.3122758831159445,-0.8850232700083325
1499369111126,1.9226367589837992,-1.2512397955290453,-0.9460593575952316
1499369111142,1.9226367589837992,-1.2512397955290453,-0.8850232700083325
1499369111158,1.8616006713969,-1.2512397955290453,-0.8850232700083325
1499369111174,1.8005645838102282,-1.3122758831159445,-0.9460593575952316
1499369111190,1.8616006713969,-1.3122758831159445,-1.0070954451819034
1499369111206,1.8616006713969,-1.2512397955290453,-1.0070954451819034
1499369111222,1.8005645838102282,-1.1291676203554744,-1.0681315327688026
1499369111238,1.6784924086366573,-1.1291676203554744,-1.1291676203554744
1499369111254,1.6174563210497581,-1.1291676203554744,-1.0681315327688026
1499369111270,1.739528496223329,-1.1902037079423735,-1.0681315327688026
1499369111286,1.6784924086366573,-1.1902037079423735,-1.1291676203554744
1499369111302,1.6174563210497581,-1.1902037079423735,-1.1291676203554744
1499369111318,1.6784924086366573,-1.2512397955290453,-1.1291676203554744
1499369111334,1.6784924086366573,-1.1902037079423735,-1.0681315327688026
1499369111350,1.6784924086366573,-1.2512397955290453,-1.0681315327688026
1499369111366,1.6784924086366573,-1.2512397955290453,-0.9460593575952316
1499369111382,1.6174563210497581,-1.2512397955290453,-0.8850232700083325
1499369111398,1.739528496223329,-1.2512397955290453,-0.8239871824216607
1499369111414,1.8616006713969,-1.1902037079423735,-0.7629510948347615
1499369111430,1.9226367589837992,-1.1291676203554744,-0.7019150072480898
1499369111446,1.983672846570471,-1.1291676203554744,-0.7629510948347615
1499369111462,1.9226367589837992,-1.1902037079423735,-0.8850232700083325
1499369111478,1.9226367589837992,-1.1902037079423735,-0.9460593575952316
1499369111494,1.9226367589837992,-1.1291676203554744,-1.0070954451819034
1499369111510,1.8005645838102282,-1.1902037079423735,-1.0070954451819034
1499369111526,1.739528496223329,-1.1902037079423735,-1.0070954451819034
1499369111542,1.6784924086366573,-1.2512397955290453,-1.0681315327688026
1499369111558,1.8005645838102282,-1.1902037079423735,-1.1291676203554744
1499369111574,1.6784924086366573,-1.1902037079423735,-1.0681315327688026
1499369111590,1.8005645838102282,-1.2512397955290453,-1.0070954451819034
1499369111606,1.739528496223329,-1.2512397955290453,-0.9460593575952316
1499369111622,1.739528496223329,-1.2512397955290453,-0.9460593575952316
1499369111638,1.8005645838102282,-1.1902037079423735,-0.8850232700083325
1499369111654,1.8005645838102282,-1.1902037079423735,-0.8850232700083325
1499369111670,1.8616006713969,-1.2512397955290453,-0.8850232700083325
1499369111686,1.8616006713969,-1.1902037079423735,-0.8850232700083325
1499369111702,1.8005645838102282,-1.2512397955290453,-0.8850232700083325
1499369111718,1.8005645838102282,-1.2512397955290453,-0.8850232700083325
1499369111734,1.8005645838102282,-1.2512397955290453,-0.9460593575952316
1499369111750,1.739528496223329,-1.2512397955290453,-0.8850232700083325
1499369111766,1.739528496223329,-1.1902037079423735,-0.9460593575952316
1499369111782,1.739528496223329,-1.1291676203554744,-1.0070954451819034
1499369111798,1.739528496223329,-1.0681315327688026,-0.9460593575952316
1499369111814,1.8005645838102282,-1.0681315327688026,-1.0070954451819034
1499369111830,1.8005645838102282,-1.1291676203554744,-1.0070954451819034
1499369111846,1.739528496223329,-1.1902037079423735,-1.0070954451819034
1499369111862,1.6784924086366573,-1.1902037079423735,-0.9460593575952316
1499369111878,1.739528496223329,-1.1902037079423735,-0.9460593575952316
1499369111894,1.6784924086366573,-1.1902037079423735,-0.9460593575952316
1499369111910,1.8005645838102282,-1.1902037079423735,-0.9460593575952316
1499369111925,1.739528496223329,-1.1902037079423735,-0.9460593575952316
1499369111941,1.8005645838102282,-1.1291676203554744,-0.9460593575952316
1499369111957,1.6784924086366573,-1.2512397955290453,-0.8850232700083325
1499369111973,1.6784924086366573,-1.2512397955290453,-0.8850232700083325
1499369111989,1.8005645838102282,-1.2512397955290453,-0.8239871824216607
1499369112005,1.9226367589837992,-1.1902037079423735,-0.8239871824216607
1499369112021,1.983672846570471,-1.1902037079423735,-0.8239871824216607
1499369112037,1.8616006713969,-1.2512397955290453,-0.8850232700083325
1499369112053,1.8005645838102282,-1.2512397955290453,-0.8850232700083325
1499369112069,1.739528496223329,-1.2512397955290453,-0.9460593575952316
1499369112085,1.739528496223329,-1.2512397955290453,-0.9460593575952316
1499369112101,1.6784924086366573,-1.2512397955290453,-1.0070954451819034
1499369112117,1.6784924086366573,-1.2512397955290453,-1.0681315327688026
1499369112133,1.739528496223329,-1.2512397955290453,-1.1291676203554744
1499369112149,1.8005645838102282,-1.2512397955290453,-1.0681315327688026
1499369112165,1.739528496223329,-1.1902037079423735,-1.0681315327688026
1499369112181,1.739528496223329,-1.2512397955290453,-0.9460593575952316
1499369112197,1.8005645838102282,-1.2512397955290453,-0.9460593575952316
1499369112213,1.8616006713969,-1.2512397955290453,-0.8850232700083325
1499369112229,1.8005645838102282,-1.2512397955290453,-0.8850232700083325
1499369112245,1.739528496223329,-1.2512397955290453,-0.8850232700083325
1499369112261,1.739528496223329,-1.2512397955290453,-0.8850232700083325
1499369112277,1.739528496223329,-1.2512397955290453,-0.8850232700083325
1499369112293,1.739528496223329,-1.1902037079423735,-0.9460593575952316
1499369112309,1.739528496223329,-1.1902037079423735,-0.9460593575952316
1499369112325,1.8005645838102282,-1.2512397955290453,-1.0070954451819034
1499369112341,1.8005645838102282,-1.1291676203554744,-1.0070954451819034
1499369112357,1.739528496223329,-1.0681315327688026,-1.0070954451819034
1499369112373,1.6174563210497581,-1.1291676203554744,-1.0070954451819034
1499369112389,1.739528496223329,-1.1902037079423735,-0.9460593575952316
1499369112405,1.739528496223329,-1.2512397955290453,-0.9460593575952316
1499369112421,1.739528496223329,-1.1902037079423735,-0.9460593575952316
1499369112437,1.8005645838102282,-1.1291676203554744,-0.9460593575952316
1499369112453,1.8616006713969,-1.1902037079423735,-0.9460593575952316
1499369112469,1.8616006713969,-1.1902037079423735,-0.8850232700083325
1499369112485,1.8005645838102282,-1.1902037079423735,-0.9460593575952316
1499369112501,1.6784924086366573,-1.1291676203554744,-0.9460593575952316
1499369112517,1.6784924086366573,-1.1902037079423735,-0.9460593575952316
1499369112533,1.739528496223329,-1.1902037079423735,-0.9460593575952316
1499369112549,1.739528496223329,-1.1902037079423735,-0.8850232700083325
1499369112565,1.739528496223329,-1.1902037079423735,-0.8239871824216607
1499369112581,1.8005645838102282,-1.1291676203554744,-0.7629510948347615
1499369112597,1.8005645838102282,-1.1902037079423735,-0.8850232700083325
1499369112613,1.8005645838102282,-1.1902037079423735,-0.8239871824216607
1499369112629,1.739528496223329,-1.2512397955290453,-0.8239871824216607
1499369112645,1.8005645838102282,-1.2512397955290453,-0.8850232700083325
1499369112661,1.8005645838102282,-1.2512397955290453,-0.9460593575952316
1499369112677,1.8005645838102282,-1.1902037079423735,-0.8850232700083325
1499369112693,1.8616006713969,-1.1902037079423735,-0.8850232700083325
1499369112709,1.8616006713969,-1.2512397955290453,-0.9460593575952316
1499369112725,1.8005645838102282,-1.1902037079423735,-0.9460593575952316
1499369112741,1.8005645838102282,-1.1902037079423735,-0.8850232700083325
1499369112757,1.8616006713969,-1.2512397955290453,-0.7629510948347615
1499369112773,1.983672846570471,-1.2512397955290453,-0.7629510948347615
1499369112789,1.983672846570471,-1.1902037079423735,-0.7019150072480898
1499369112805,1.983672846570471,-1.0070954451819034,-0.7019150072480898
1499369112821,2.04470893415737,-0.9460593575952316,-0.7019150072480898
1499369112837,1.9226367589837992,-0.8850232700083325,-0.8239871824216607
1499369112853,1.8005645838102282,-0.8239871824216607,-0.9460593575952316
1499369112869,1.6784924086366573,-0.7629510948347615,-1.0070954451819034
1499369112885,1.6784924086366573,-0.8239871824216607,-1.0681315327688026
1499369112901,1.739528496223329,-0.8850232700083325,-1.0681315327688026
1499369112917,1.739528496223329,-0.8850232700083325,-1.1291676203554744
1499369112933,1.6784924086366573,-0.8850232700083325,-1.1291676203554744
1499369112949,1.5564202334630863,-1.0681315327688026,-1.0681315327688026
1499369112965,1.5564202334630863,-1.1291676203554744,-1.0070954451819034
1499369112981,1.6784924086366573,-1.1902037079423735,-0.9460593575952316
1499369112997,1.6784924086366573,-1.1291676203554744,-0.9460593575952316
1499369113013,1.739528496223329,-1.1291676203554744,-0.8850232700083325
1499369113029,1.8616006713969,-1.0681315327688026,-0.8850232700083325
1499369113045,1.8005645838102282,-1.1291676203554744,-0.8850232700083325
1499369113061,1.8005645838102282,-1.1902037079423735,-0.8850232700083325
1499369113077,1.8005645838102282,-1.1291676203554744,-0.8850232700083325
1499369113093,1.8616006713969,-1.1291676203554744,-0.8850232700083325
1499369113109,1.8005645838102282,-1.1902037079423735,-0.8850232700083325
1499369113125,1.739528496223329,-1.1291676203554744,-0.8850232700083325
1499369113141,1.739528496223329,-1.1902037079423735,-0.8850232700083325
1499369113157,1.8005645838102282,-1.1902037079423735,-0.8850232700083325
1499369113173,1.8005645838102282,-1.2512397955290453,-0.8850232700083325
1499369113189,1.739528496223329,-1.2512397955290453,-0.8850232700083325
1499369113205,1.8616006713969,-1.3122758831159445,-0.8239871824216607
1499369113221,1.9226367589837992,-1.3122758831159445,-0.8239871824216607
1499369113237,2.04470893415737,-1.3122758831159445,-0.7629510948347615
1499369113253,2.105745021744042,-1.2512397955290453,-0.7629510948347615
1499369113269,2.105745021744042,-1.3122758831159445,-0.8239871824216607
1499369113285,2.04470893415737,-1.2512397955290453,-0.8239871824216607
1499369113301,1.983672846570471,-1.1902037079423735,-0.8850232700083325
1499369113317,1.983672846570471,-1.2512397955290453,-0.8239871824216607
1499369113333,1.983672846570471,-1.2512397955290453,-0.8850232700083325
1499369113349,1.9226367589837992,-1.2512397955290453,-0.8850232700083325
1499369113365,1.8005645838102282,-1.2512397955290453,-0.9460593575952316
1499369113381,1.8616006713969,-1.3122758831159445,-0.8239871824216607
1499369113397,1.983672846570471,-1.3733119707026162,-0.8239871824216607
1499369113413,1.9226367589837992,-1.3733119707026162,-0.8239871824216607
1499369113429,1.9226367589837992,-1.3733119707026162,-0.8239871824216607
1499369113445,1.8616006713969,-1.3733119707026162,-0.8239871824216607
1499369113460,1.8005645838102282,-1.3733119707026162,-0.7629510948347615
1499369113476,1.8616006713969,-1.3122758831159445,-0.7629510948347615
1499369113492,1.8616006713969,-1.3122758831159445,-0.8239871824216607
1499369113508,1.8616006713969,-1.3733119707026162,-0.8850232700083325
1499369113524,1.8616006713969,-1.3733119707026162,-0.9460593575952316
1499369113540,1.8616006713969,-1.3733119707026162,-0.9460593575952316
1499369113556,1.8005645838102282,-1.3122758831159445,-0.9460593575952316
1499369113572,1.739528496223329,-1.3122758831159445,-1.0070954451819034
1499369113588,1.6784924086366573,-1.3122758831159445,-1.0070954451819034
1499369113604,1.739528496223329,-1.2512397955290453,-1.1291676203554744
1499369113620,1.739528496223329,-1.2512397955290453,-1.1902037079423735
1499369113636,1.6784924086366573,-1.1902037079423735,-1.2512397955290453
1499369113652,1.6174563210497581,-1.1902037079423735,-1.1902037079423735
1499369113668,1.5564202334630863,-1.2512397955290453,-1.1902037079423735
1499369113684,1.6174563210497581,-1.2512397955290453,-1.1291676203554744
1499369113700,1.5564202334630863,-1.3122758831159445,-1.1291676203554744
1499369113716,1.5564202334630863,-1.2512397955290453,-1.0070954451819034
1499369113732,1.6174563210497581,-1.2512397955290453,-1.0070954451819034
1499369113748,1.5564202334630863,-1.1902037079423735,-1.0070954451819034
1499369113764,1.6784924086366573,-1.2512397955290453,-0.9460593575952316
1499369113780,1.6784924086366573,-1.1902037079423735,-0.9460593575952316
1499369113796,1.6784924086366573,-1.1902037079423735,-0.8850232700083325
1499369113812,1.6784924086366573,-1.1291676203554744,-0.9460593575952316
1499369113828,1.6784924086366573,-1.1291676203554744,-0.8850232700083325
1499369113844,1.6784924086366573,-1.1902037079423735,-1.0070954451819034
1499369113860,1.6784924086366573,-1.1902037079423735,-0.9460593575952316
1499369113876,1.6784924086366573,-1.1902037079423735,-1.0070954451819034
1499369113892,1.6784924086366573,-1.1902037079423735,-1.0070954451819034
1499369113908,1.739528496223329,-1.2512397955290453,-0.9460593575952316
1499369113924,1.739528496223329,-1.2512397955290453,-0.9460593575952316
1499369113940,1.8005645838102282,-1.1902037079423735,-0.8850232700083325
1499369113956,1.8005645838102282,-1.1902037079423735,-0.8850232700083325
1499369113972,1.8005645838102282,-1.1902037079423735,-0.8239871824216607
1499369113988,1.9226367589837992,-1.1902037079423735,-0.8850232700083325
1499369114004,1.8616006713969,-1.1902037079423735,-0.8850232700083325
1499369114020,1.8005645838102282,-1.1291676203554744,-0.9460593575952316
1499369114036,1.6784924086366573,-1.1902037079423735,-1.0070954451819034
1499369114052,1.6174563210497581,-1.2512397955290453,-1.1291676203554744
1499369114068,1.6784924086366573,-1.3733119707026162,-1.0681315327688026
1499369114084,1.6174563210497581,-1.3733119707026162,-1.1291676203554744
1499369114100,1.4953841458761872,-1.3733119707026162,-1.1291676203554744
1499369114116,1.5564202334630863,-1.3733119707026162,-1.1291676203554744
1499369114132,1.6784924086366573,-1.3122758831159445,-1.0070954451819034
1499369114148,1.739528496223329,-1.2512397955290453,-0.8850232700083325
1499369114164,1.8005645838102282,-1.1902037079423735,-0.9460593575952316
1499369114180,1.8005645838102282,-1.1291676203554744,-0.9460593575952316
1499369114196,1.8005645838102282,-1.1291676203554744,-0.9460593575952316
1499369114212,1.739528496223329,-1.1902037079423735,-1.0070954451819034
1499369114228,1.6784924086366573,-1.1902037079423735,-1.0070954451819034
1499369114244,1.6174563210497581,-1.3122758831159445,-1.0070954451819034
1499369114260,1.5564202334630863,-1.2512397955290453,-1.0070954451819034
1499369114276,1.6174563210497581,-1.3122758831159445,-1.0070954451819034
1499369114292,1.6784924086366573,-1.3122758831159445,-0.9460593575952316
1499369114308,1.6784924086366573,-1.3122758831159445,-0.8850232700083325
1499369114324,1.739528496223329,-1.2512397955290453,-0.8850232700083325
1499369114340,1.739528496223329,-1.2512397955290453,-0.9460593575952316
1499369114356,1.6784924086366573,-1.2512397955290453,-0.9460593575952316
1499369114372,1.8005645838102282,-1.2512397955290453,-0.9460593575952316
1499369114388,1.739528496223329,-1.3122758831159445,-0.9460593575952316
1499369114404,1.739528496223329,-1.3733119707026162,-1.0681315327688026
1499369114420,1.739528496223329,-1.3733119707026162,-1.0681315327688026
1499369114436,1.739528496223329,-1.2512397955290453,-1.0070954451819034
1499369114452,1.6784924086366573,-1.2512397955290453,-1.0681315327688026
1499369114468,1.6174563210497581,-1.2512397955290453,-1.1291676203554744
1499369114484,1.6784924086366573,-1.2512397955290453,-1.0681315327688026
1499369114500,1.739528496223329,-1.1902037079423735,-0.9460593575952316
1499369114516,1.8616006713969,-1.0681315327688026,-0.8850232700083325
1499369114532,1.8616006713969,-0.9460593575952316,-0.8850232700083325
1499369114548,1.9226367589837992,-0.9460593575952316,-0.8239871824216607
1499369114564,1.9226367589837992,-0.9460593575952316,-0.8239871824216607
1499369114580,1.9226367589837992,-1.0070954451819034,-0.8239871824216607
1499369114596,1.8616006713969,-1.0070954451819034,-0.8239871824216607
1499369114612,1.8616006713969,-1.1291676203554744,-0.9460593575952316
1499369114628,1.739528496223329,-1.1902037079423735,-1.0070954451819034
1499369114644,1.6784924086366573,-1.3122758831159445,-1.0681315327688026
1499369114660,1.6784924086366573,-1.3733119707026162,-1.1291676203554744
1499369114676,1.739528496223329,-1.4343480582895154,-1.1902037079423735
1499369114692,1.739528496223329,-1.4343480582895154,-1.1291676203554744
1499369114708,1.739528496223329,-1.4343480582895154,-1.0681315327688026
1499369114724,1.6784924086366573,-1.3733119707026162,-1.0070954451819034
1499369114740,1.8005645838102282,-1.4343480582895154,-0.9460593575952316
1499369114756,1.8616006713969,-1.3122758831159445,-0.8239871824216607
1499369114772,1.8005645838102282,-1.1902037079423735,-0.8850232700083325
1499369114788,1.8616006713969,-1.1291676203554744,-0.8850232700083325
1499369114804,1.9226367589837992,-1.0681315327688026,-0.8850232700083325
1499369114820,1.8616006713969,-1.0681315327688026,-0.8850232700083325
1499369114836,1.8616006713969,-1.0070954451819034,-0.8850232700083325
1499369114852,1.8005645838102282,-1.0070954451819034,-1.0070954451819034
1499369114868,1.8005645838102282,-1.0070954451819034,-0.9460593575952316
1499369114884,1.739528496223329,-1.0681315327688026,-0.9460593575952316
1499369114900,1.8005645838102282,-1.1291676203554744,-1.0070954451819034
1499369114916,1.8005645838102282,-1.1902037079423735,-1.0070954451819034
1499369114932,1.8005645838102282,-1.3122758831159445,-0.9460593575952316
1499369114948,1.739528496223329,-1.3733119707026162,-0.9460593575952316
1499369114964,1.739528496223329,-1.3733119707026162,-0.9460593575952316
1499369114980,1.6784924086366573,-1.4343480582895154,-1.0070954451819034
1499369114996,1.739528496223329,-1.4953841458761872,-1.0070954451819034
1499369115012,1.6784924086366573,-1.4343480582895154,-1.0070954451819034
1499369115028,1.739528496223329,-1.4343480582895154,-0.9460593575952316
1499369115043,1.8005645838102282,-1.3122758831159445,-1.0070954451819034
1499369115059,1.8616006713969,-1.3122758831159445,-1.0070954451819034
1499369115075,1.8005645838102282,-1.3122758831159445,-1.0070954451819034
1499369115091,1.739528496223329,-1.2512397955290453,-1.0070954451819034
1499369115107,1.739528496223329,-1.2512397955290453,-0.8850232700083325
1499369115123,1.739528496223329,-1.2512397955290453,-0.8850232700083325
1499369115139,1.739528496223329,-1.2512397955290453,-0.8850232700083325
1499369115155,1.739528496223329,-1.2512397955290453,-0.8239871824216607
1499369115171,1.8616006713969,-1.2512397955290453,-0.8239871824216607
1499369115187,1.8005645838102282,-1.1902037079423735,-0.8239871824216607
1499369115203,1.8005645838102282,-1.1902037079423735,-0.8850232700083325
1499369115219,1.8005645838102282,-1.1902037079423735,-0.8850232700083325
1499369115235,1.739528496223329,-1.2512397955290453,-0.9460593575952316
1499369115251,1.739528496223329,-1.2512397955290453,-1.0070954451819034
1499369115267,1.8005645838102282,-1.2512397955290453,-1.0681315327688026
1499369115283,1.739528496223329,-1.1902037079423735,-1.0681315327688026
1499369115299,1.739528496223329,-1.1902037079423735,-1.0681315327688026
1499369115315,1.739528496223329,-1.2512397955290453,-1.0070954451819034
1499369115331,1.6784924086366573,-1.3122758831159445,-1.0070954451819034
1499369115347,1.739528496223329,-1.2512397955290453,-1.0070954451819034
1499369115363,1.8005645838102282,-1.1902037079423735,-0.9460593575952316
1499369115379,1.8005645838102282,-1.2512397955290453,-0.8850232700083325
1499369115395,1.8005645838102282,-1.2512397955290453,-0.8850232700083325
1499369115411,1.739528496223329,-1.1902037079423735,-0.9460593575952316
1499369115427,1.6174563210497581,-1.1291676203554744,-0.8850232700083325
1499369115443,1.6784924086366573,-1.1291676203554744,-0.8239871824216607
1499369115459,1.739528496223329,-1.1291676203554744,-0.8239871824216607
1499369115475,1.8616006713969,-1.1291676203554744,-0.8239871824216607
1499369115491,1.8005645838102282,-1.0681315327688026,-0.8239871824216607
1499369115507,1.8616006713969,-1.0681315327688026,-0.8850232700083325
1499369115523,1.8616006713969,-1.1291676203554744,-0.8850232700083325
1499369115539,1.8616006713969,-1.1902037079423735,-0.8850232700083325
1499369115555,1.6784924086366573,-1.2512397955290453,-0.9460593575952316
1499369115571,1.739528496223329,-1.2512397955290453,-0.9460593575952316
1499369115587,1.739528496223329,-1.2512397955290453,-1.0070954451819034
1499369115603,1.6784924086366573,-1.2512397955290453,-1.0070954451819034
1499369115619,1.8005645838102282,-1.2512397955290453,-1.0070954451819034
1499369115635,1.8005645838102282,-1.1902037079423735,-1.0070954451819034
1499369115651,1.739528496223329,-1.1902037079423735,-0.9460593575952316
1499369115667,1.739528496223329,-1.1291676203554744,-0.9460593575952316
1499369115683,1.739528496223329,-1.1291676203554744,-0.9460593575952316
1499369115699,1.8005645838102282,-1.1902037079423735,-0.8850232700083325
1499369115715,1.8005645838102282,-1.2512397955290453,-0.9460593575952316
1499369115731,1.739528496223329,-1.3122758831159445,-0.8850232700083325
1499369115747,1.8005645838102282,-1.3122758831159445,-0.8850232700083325
1499369115763,1.6174563210497581,-1.2512397955290453,-0.9460593575952316
1499369115779,1.6784924086366573,-1.1902037079423735,-0.9460593575952316
1499369115795,1.6174563210497581,-1.1902037079423735,-0.8850232700083325
1499369115811,1.739528496223329,-1.1902037079423735,-0.9460593575952316
1499369115827,1.8005645838102282,-1.1902037079423735,-1.0070954451819034
1499369115843,1.8005645838102282,-1.1902037079423735,-0.9460593575952316
1499369115859,1.6784924086366573,-1.1902037079423735,-0.9460593575952316
1499369115875,1.6784924086366573,-1.1902037079423735,-0.9460593575952316
1499369115891,1.6784924086366573,-1.1902037079423735,-0.9460593575952316
1499369115907,1.739528496223329,-1.1902037079423735,-0.8850232700083325
1499369115923,1.739528496223329,-1.1902037079423735,-0.8850232700083325
1499369115939,1.8005645838102282,-1.1902037079423735,-0.8850232700083325
1499369115955,1.8005645838102282,-1.1902037079423735,-0.8850232700083325
1499369115971,1.8005645838102282,-1.2512397955290453,-0.8239871824216607
1499369115987,1.8616006713969,-1.1902037079423735,-0.8850232700083325
1499369116003,1.739528496223329,-1.1902037079423735,-0.9460593575952316
1499369116019,1.739528496223329,-1.1902037079423735,-0.8850232700083325
1499369116035,1.739528496223329,-1.2512397955290453,-0.8850232700083325
1499369116051,1.739528496223329,-1.2512397955290453,-0.8850232700083325
1499369116067,1.739528496223329,-1.3122758831159445,-0.8850232700083325
1499369116083,1.8616006713969,-1.1902037079423735,-0.9460593575952316
1499369116099,1.739528496223329,-1.2512397955290453,-1.0070954451819034
1499369116115,1.6174563210497581,-1.3122758831159445,-1.0070954451819034
1499369116131,1.5564202334630863,-1.3733119707026162,-1.0681315327688026
1499369116147,1.5564202334630863,-1.4953841458761872,-1.0681315327688026
1499369116163,1.5564202334630863,-1.6174563210497581,-1.0681315327688026
1499369116179,1.6174563210497581,-1.6174563210497581,-1.0681315327688026
1499369116195,1.6174563210497581,-1.6784924086366573,-1.0681315327688026
1499369116211,1.6174563210497581,-1.6784924086366573,-1.0070954451819034
1499369116227,1.6174563210497581,-1.6174563210497581,-1.0681315327688026
1499369116243,1.6784924086366573,-1.4343480582895154,-0.9460593575952316
1499369116259,1.739528496223329,-1.3122758831159445,-0.9460593575952316
1499369116275,1.739528496223329,-1.1902037079423735,-0.9460593575952316
1499369116291,1.8005645838102282,-1.0681315327688026,-0.9460593575952316
1499369116307,1.8616006713969,-0.8239871824216607,-0.8850232700083325
1499369116323,1.9226367589837992,-0.8239871824216607,-0.8239871824216607
1499369116339,1.9226367589837992,-0.8239871824216607,-0.8850232700083325
1499369116355,1.8616006713969,-0.8239871824216607,-0.8239871824216607
1499369116371,1.8005645838102282,-0.8850232700083325,-0.8239871824216607
1499369116387,1.8005645838102282,-0.8850232700083325,-0.8239871824216607
1499369116403,1.8005645838102282,-0.9460593575952316,-0.8850232700083325
1499369116419,1.8005645838102282,-1.0070954451819034,-0.8850232700083325
1499369116435,1.739528496223329,-1.0070954451819034,-1.0681315327688026
1499369116451,1.739528496223329,-1.0070954451819034,-1.0070954451819034
1499369116467,1.6784924086366573,-1.0681315327688026,-0.9460593575952316
1499369116483,1.739528496223329,-1.1291676203554744,-1.0070954451819034
1499369116499,1.739528496223329,-1.1902037079423735,-1.0070954451819034
1499369116515,1.8616006713969,-1.1291676203554744,-0.9460593575952316
1499369116531,1.8616006713969,-1.1291676203554744,-0.8850232700083325
1499369116547,1.8616006713969,-1.1902037079423735,-0.8239871824216607
1499369116563,1.8616006713969,-1.1902037079423735,-0.8850232700083325
1499369116579,1.8005645838102282,-1.1291676203554744,-0.8850232700083325
1499369116595,1.739528496223329,-1.1902037079423735,-0.8239871824216607
1499369116611,1.8005645838102282,-1.1291676203554744,-0.8239871824216607
1499369116627,1.8005645838102282,-1.0681315327688026,-0.8239871824216607
1499369116643,1.8616006713969,-1.0681315327688026,-0.8239871824216607
1499369116659,1.9226367589837992,-1.0070954451819034,-0.9460593575952316
1499369116675,1.9226367589837992,-0.9460593575952316,-0.9460593575952316
1499369116691,1.9226367589837992,-0.9460593575952316,-0.8850232700083325
1499369116706,1.8005645838102282,-0.9460593575952316,-0.8239871824216607
1499369116722,1.8005645838102282,-1.0070954451819034,-0.8239871824216607
1499369116738,1.9226367589837992,-1.0070954451819034,-0.8239871824216607
1499369116754,1.983672846570471,-0.9460593575952316,-0.8239871824216607
1499369116770,1.983672846570471,-0.9460593575952316,-0.8850232700083325
1499369116786,1.9226367589837992,-0.9460593575952316,-0.8850232700083325
1499369116802,1.8005645838102282,-1.0070954451819034,-0.8850232700083325
1499369116818,1.739528496223329,-1.0070954451819034,-0.9460593575952316
1499369116834,1.739528496223329,-1.0681315327688026,-0.8850232700083325
1499369116850,1.739528496223329,-1.0681315327688026,-0.8850232700083325
1499369116866,1.8616006713969,-1.0681315327688026,-0.8239871824216607
1499369116882,1.8616006713969,-1.0070954451819034,-0.8850232700083325
1499369116898,1.8616006713969,-1.0070954451819034,-0.9460593575952316
1499369116914,1.8616006713969,-1.0070954451819034,-0.8850232700083325
1499369116930,1.8005645838102282,-1.0681315327688026,-0.8850232700083325
1499369116946,1.8005645838102282,-1.0681315327688026,-0.8850232700083325
1499369116962,1.739528496223329,-1.0681315327688026,-0.8850232700083325
1499369116978,1.8005645838102282,-1.1902037079423735,-0.8850232700083325
1499369116994,1.739528496223329,-1.1291676203554744,-0.9460593575952316
1499369117010,1.739528496223329,-1.2512397955290453,-1.0070954451819034
1499369117026,1.6784924086366573,-1.3122758831159445,-1.0070954451819034
1499369117042,1.6174563210497581,-1.2512397955290453,-1.0070954451819034
1499369117058,1.6174563210497581,-1.1902037079423735,-1.1291676203554744
1499369117074,1.6174563210497581,-1.1902037079423735,-1.0681315327688026
1499369117090,1.6784924086366573,-1.2512397955290453,-1.0681315327688026
1499369117106,1.8005645838102282,-1.2512397955290453,-1.0070954451819034
1499369117122,1.8005645838102282,-1.1291676203554744,-1.0681315327688026
1499369117138,1.739528496223329,-1.1902037079423735,-1.0070954451819034
1499369117154,1.8005645838102282,-1.1902037079423735,-0.9460593575952316
1499369117170,1.739528496223329,-1.2512397955290453,-0.9460593575952316
1499369117186,1.8005645838102282,-1.1902037079423735,-0.9460593575952316
1499369117202,1.739528496223329,-1.1291676203554744,-0.8850232700083325
1499369117218,1.8616006713969,-1.1291676203554744,-0.8850232700083325
1499369117234,1.739528496223329,-1.1291676203554744,-0.8850232700083325
1499369117250,1.8005645838102282,-1.1291676203554744,-0.8239871824216607
1499369117266,1.8005645838102282,-1.1291676203554744,-0.8850232700083325
1499369117282,1.8005645838102282,-1.1291676203554744,-0.8239871824216607
1499369117298,1.739528496223329,-1.1291676203554744,-0.8850232700083325
1499369117314,1.739528496223329,-1.1902037079423735,-0.9460593575952316
1499369117330,1.6784924086366573,-1.1902037079423735,-0.9460593575952316
1499369117346,1.739528496223329,-1.2512397955290453,-1.0070954451819034
1499369117362,1.739528496223329,-1.3122758831159445,-1.0070954451819034
1499369117378,1.739528496223329,-1.3122758831159445,-1.0681315327688026
1499369117394,1.8005645838102282,-1.2512397955290453,-1.0681315327688026
1499369117410,1.8005645838102282,-1.2512397955290453,-1.0070954451819034
1499369117426,1.8005645838102282,-1.3122758831159445,-1.0681315327688026
1499369117442,1.739528496223329,-1.3122758831159445,-1.0070954451819034
1499369117458,1.6784924086366573,-1.3122758831159445,-0.9460593575952316
1499369117474,1.8005645838102282,-1.2512397955290453,-0.9460593575952316
1499369117490,1.8005645838102282,-1.2512397955290453,-0.8850232700083325
1499369117506,1.8005645838102282,-1.1902037079423735,-0.8850232700083325
1499369117522,1.8616006713969,-1.2512397955290453,-0.9460593575952316
1499369117538,1.9226367589837992,-1.2512397955290453,-0.8850232700083325
1499369117554,1.8616006713969,-1.2512397955290453,-0.8850232700083325
1499369117570,1.739528496223329,-1.3122758831159445,-0.9460593575952316
1499369117586,1.739528496223329,-1.2512397955290453,-0.9460593575952316
1499369117602,1.739528496223329,-1.3122758831159445,-1.0070954451819034
1499369117618,1.8005645838102282,-1.2512397955290453,-1.0070954451819034
1499369117634,1.739528496223329,-1.1902037079423735,-1.0070954451819034
1499369117650,1.739528496223329,-1.1291676203554744,-0.9460593575952316
1499369117666,1.739528496223329,-1.1291676203554744,-1.0070954451819034
1499369117682,1.8616006713969,-1.0681315327688026,-0.9460593575952316
1499369117698,1.8005645838102282,-1.0681315327688026,-0.9460593575952316
1499369117714,1.8616006713969,-1.1291676203554744,-0.9460593575952316
1499369117730,1.9226367589837992,-1.1291676203554744,-0.9460593575952316
1499369117746,1.8616006713969,-1.1902037079423735,-0.9460593575952316
1499369117762,1.739528496223329,-1.1902037079423735,-0.8850232700083325
1499369117778,1.739528496223329,-1.1902037079423735,-0.9460593575952316
1499369117794,1.739528496223329,-1.1902037079423735,-0.8850232700083325
1499369117810,1.739528496223329,-1.2512397955290453,-0.9460593575952316
1499369117826,1.8005645838102282,-1.1902037079423735,-0.9460593575952316
1499369117842,1.8616006713969,-1.1291676203554744,-0.9460593575952316
1499369117858,1.8616006713969,-1.1291676203554744,-0.8850232700083325
1499369117874,1.8005645838102282,-1.1902037079423735,-0.8850232700083325
1499369117890,1.739528496223329,-1.1902037079423735,-0.9460593575952316
1499369117906,1.739528496223329,-1.2512397955290453,-0.9460593575952316
1499369117922,1.8005645838102282,-1.2512397955290453,-0.9460593575952316
1499369117938,1.8005645838102282,-1.2512397955290453,-0.9460593575952316
1499369117954,1.8005645838102282,-1.1291676203554744,-0.9460593575952316
1499369117970,1.8005645838102282,-1.1902037079423735,-0.9460593575952316
1499369117986,1.8005645838102282,-1.1902037079423735,-0.9460593575952316
1499369118002,1.8005645838102282,-1.1291676203554744,-0.9460593575952316
1499369118018,1.8005645838102282,-1.1902037079423735,-0.9460593575952316
1499369118034,1.8005645838102282,-1.1902037079423735,-0.9460593575952316
1499369118050,1.8616006713969,-1.3122758831159445,-0.9460593575952316
1499369118066,1.8005645838102282,-1.2512397955290453,-0.9460593575952316
1499369118082,1.8005645838102282,-1.2512397955290453,-0.8850232700083325
1499369118098,1.8005645838102282,-1.3122758831159445,-0.8850232700083325
1499369118114,1.8005645838102282,-1.3122758831159445,-0.8850232700083325
1499369118130,1.8005645838102282,-1.2512397955290453,-0.8850232700083325
1499369118146,1.8005645838102282,-1.2512397955290453,-0.9460593575952316
1499369118162,1.8616006713969,-1.2512397955290453,-0.9460593575952316
1499369118178,1.8005645838102282,-1.1902037079423735,-0.9460593575952316
1499369118194,1.8005645838102282,-1.1902037079423735,-0.9460593575952316
1499369118210,1.739528496223329,-1.2512397955290453,-0.9460593575952316
1499369118226,1.6174563210497581,-1.1291676203554744,-1.0070954451819034
1499369118242,1.6174563210497581,-1.1291676203554744,-0.9460593575952316
1499369118258,1.6784924086366573,-1.1902037079423735,-0.9460593575952316
1499369118274,1.6784924086366573,-1.1902037079423735,-0.8850232700083325
1499369118289,1.8005645838102282,-1.1902037079423735,-0.9460593575952316
1499369118305,1.8005645838102282,-1.2512397955290453,-1.0070954451819034
1499369118321,1.8005645838102282,-1.2512397955290453,-1.0681315327688026
1499369118337,1.8005645838102282,-1.2512397955290453,-0.9460593575952316
1499369118353,1.739528496223329,-1.2512397955290453,-0.9460593575952316
1499369118369,1.6784924086366573,-1.2512397955290453,-0.9460593575952316
1499369118385,1.6784924086366573,-1.1902037079423735,-0.8850232700083325
1499369118401,1.739528496223329,-1.2512397955290453,-0.8239871824216607
1499369118417,1.8616006713969,-1.2512397955290453,-0.8850232700083325
1499369118433,1.9226367589837992,-1.1902037079423735,-0.8239871824216607
1499369118449,1.8616006713969,-1.1902037079423735,-0.8239871824216607
1499369118465,1.739528496223329,-1.1291676203554744,-0.8239871824216607
1499369118481,1.739528496223329,-1.1291676203554744,-0.8239871824216607
1499369118497,1.739528496223329,-1.2512397955290453,-0.8239871824216607
1499369118513,1.739528496223329,-1.2512397955290453,-0.8850232700083325
1499369118529,1.739528496223329,-1.1902037079423735,-0.8850232700083325
1499369118545,1.8005645838102282,-1.1291676203554744,-0.9460593575952316
1499369118561,1.739528496223329,-1.1902037079423735,-0.8850232700083325
1499369118577,1.739528496223329,-1.1291676203554744,-0.9460593575952316
1499369118593,1.739528496223329,-1.1291676203554744,-0.9460593575952316
1499369118609,1.739528496223329,-1.0681315327688026,-0.8850232700083325
1499369118625,1.739528496223329,-1.1291676203554744,-0.8850232700083325
1499369118641,1.739528496223329,-1.1291676203554744,-0.8850232700083325
1499369118657,1.8005645838102282,-1.1291676203554744,-0.8850232700083325
1499369118673,1.8005645838102282,-1.1902037079423735,-0.8850232700083325
1499369118689,1.8005645838102282,-1.1902037079423735,-0.8850232700083325
1499369118705,1.8005645838102282,-1.1291676203554744,-0.8850232700083325
1499369118721,1.739528496223329,-1.1291676203554744,-0.8850232700083325
1499369118737,1.6174563210497581,-1.1291676203554744,-0.9460593575952316
1499369118753,1.6174563210497581,-1.1291676203554744,-0.9460593575952316
1499369118769,1.6174563210497581,-1.1291676203554744,-0.9460593575952316
1499369118785,1.6784924086366573,-1.1902037079423735,-0.8850232700083325
1499369118801,1.6784924086366573,-1.1291676203554744,-0.9460593575952316
1499369118817,1.6784924086366573,-1.1291676203554744,-0.9460593575952316
1499369118833,1.6784924086366573,-1.0681315327688026,-0.9460593575952316
1499369118849,1.6784924086366573,-1.0681315327688026,-0.8239871824216607
1499369118865,1.739528496223329,-1.1902037079423735,-0.8850232700083325
1499369118881,1.8005645838102282,-1.1902037079423735,-0.8850232700083325
1499369118897,1.8616006713969,-1.2512397955290453,-0.8850232700083325
1499369118913,1.9226367589837992,-1.2512397955290453,-1.0070954451819034
1499369118929,1.983672846570471,-1.2512397955290453,-0.9460593575952316
1499369118945,1.8616006713969,-1.3122758831159445,-1.0070954451819034
1499369118961,1.6784924086366573,-1.3733119707026162,-1.0681315327688026
1499369118977,1.6174563210497581,-1.3733119707026162,-1.0070954451819034
1499369118993,1.6784924086366573,-1.3733119707026162,-1.0070954451819034
1499369119009,1.8005645838102282,-1.4343480582895154,-0.8850232700083325
1499369119025,1.8005645838102282,-1.3733119707026162,-0.9460593575952316
1499369119041,1.8005645838102282,-1.2512397955290453,-0.8850232700083325
1499369119057,1.8616006713969,-1.1902037079423735,-0.8850232700083325
1499369119073,1.8005645838102282,-1.1902037079423735,-0.8850232700083325
1499369119089,1.6784924086366573,-1.2512397955290453,-0.8850232700083325
1499369119105,1.6174563210497581,-1.2512397955290453,-0.8850232700083325
1499369119121,1.6784924086366573,-1.2512397955290453,-0.8850232700083325
1499369119137,1.739528496223329,-1.1902037079423735,-1.0070954451819034
1499369119153,1.739528496223329,-1.1291676203554744,-1.0681315327688026
1499369119169,1.739528496223329,-1.1902037079423735,-1.0681315327688026
1499369119185,1.739528496223329,-1.1902037079423735,-0.9460593575952316
1499369119201,1.739528496223329,-1.2512397955290453,-1.0070954451819034
1499369119217,1.739528496223329,-1.2512397955290453,-0.9460593575952316
1499369119233,1.739528496223329,-1.2512397955290453,-0.8850232700083325
1499369119249,1.739528496223329,-1.1902037079423735,-0.8850232700083325
1499369119265,1.739528496223329,-1.1902037079423735,-0.8850232700083325
1499369119281,1.8005645838102282,-1.2512397955290453,-0.9460593575952316
1499369119297,1.739528496223329,-1.3122758831159445,-0.9460593575952316
1499369119313,1.739528496223329,-1.2512397955290453,-0.9460593575952316
1499369119329,1.6784924086366573,-1.1902037079423735,-0.9460593575952316
1499369119345,1.739528496223329,-1.2512397955290453,-1.0070954451819034
1499369119361,1.739528496223329,-1.3122758831159445,-0.9460593575952316
1499369119377,1.739528496223329,-1.2512397955290453,-1.0070954451819034
1499369119393,1.8005645838102282,-1.2512397955290453,-1.0681315327688026
1499369119409,1.739528496223329,-1.2512397955290453,-1.0681315327688026
1499369119425,1.739528496223329,-1.2512397955290453,-1.0070954451819034
1499369119441,1.739528496223329,-1.3122758831159445,-0.9460593575952316
1499369119457,1.6784924086366573,-1.2512397955290453,-0.8850232700083325
1499369119473,1.739528496223329,-1.1291676203554744,-0.8850232700083325
1499369119489,1.8005645838102282,-1.1291676203554744,-0.8850232700083325
1499369119505,1.8616006713969,-1.1291676203554744,-1.0070954451819034
1499369119521,1.8616006713969,-1.1902037079423735,-0.9460593575952316
1499369119537,1.8005645838102282,-1.1902037079423735,-0.9460593575952316
1499369119553,1.6784924086366573,-1.1902037079423735,-0.9460593575952316
1499369119569,1.6174563210497581,-1.1902037079423735,-0.8850232700083325
1499369119585,1.6784924086366573,-1.2512397955290453,-0.8239871824216607
1499369119601,1.739528496223329,-1.2512397955290453,-0.8850232700083325
1499369119617,1.8005645838102282,-1.3122758831159445,-0.8850232700083325
1499369119633,1.8616006713969,-1.2512397955290453,-0.9460593575952316
1499369119649,1.8616006713969,-1.1902037079423735,-0.8850232700083325
1499369119665,1.739528496223329,-1.2512397955290453,-0.8850232700083325
1499369119681,1.6784924086366573,-1.2512397955290453,-0.8850232700083325
1499369119697,1.6784924086366573,-1.2512397955290453,-0.9460593575952316
1499369119713,1.6784924086366573,-1.2512397955290453,-1.0070954451819034
1499369119729,1.739528496223329,-1.2512397955290453,-1.0070954451819034
1499369119745,1.739528496223329,-1.1291676203554744,-1.0681315327688026
1499369119761,1.8005645838102282,-1.1902037079423735,-1.0070954451819034
1499369119777,1.8005645838102282,-1.2512397955290453,-0.9460593575952316
1499369119793,1.8005645838102282,-1.2512397955290453,-0.8850232700083325
1499369119809,1.739528496223329,-1.1902037079423735,-0.8850232700083325
1499369119825,1.8005645838102282,-1.2512397955290453,-0.8850232700083325
1499369119840,1.8005645838102282,-1.2512397955290453,-0.8850232700083325
1499369119856,1.8005645838102282,-1.2512397955290453,-0.8850232700083325
1499369119872,1.8005645838102282,-1.2512397955290453,-0.8239871824216607
1499369119888,1.8005645838102282,-1.1902037079423735,-0.8239871824216607
1499369119904,1.739528496223329,-1.1902037079423735,-0.8850232700083325
1499369119920,1.739528496223329,-1.1291676203554744,-0.8850232700083325
1499369119936,1.8005645838102282,-1.1291676203554744,-0.8850232700083325
1499369119952,1.8005645838102282,-1.1902037079423735,-0.8850232700083325
1499369119968,1.8005645838102282,-1.1902037079423735,-0.9460593575952316
1499369119984,1.739528496223329,-1.1902037079423735,-0.9460593575952316
1499369120000,1.8005645838102282,-1.1291676203554744,-0.9460593575952316
1499369120016,1.739528496223329,-1.1291676203554744,-0.9460593575952316
1499369120032,1.739528496223329,-1.1291676203554744,-0.8850232700083325
1499369120048,1.739528496223329,-1.1291676203554744,-0.9460593575952316
1499369120064,1.8616006713969,-1.0681315327688026,-0.9460593575952316
1499369120080,1.8616006713969,-1.0070954451819034,-1.0070954451819034
1499369120096,1.8005645838102282,-1.0070954451819034,-0.9460593575952316
1499369120112,1.8005645838102282,-1.1291676203554744,-0.9460593575952316
1499369120128,1.8005645838102282,-1.1291676203554744,-0.9460593575952316
1499369120144,1.6784924086366573,-1.1902037079423735,-0.8850232700083325
1499369120160,1.6784924086366573,-1.2512397955290453,-0.8850232700083325
1499369120176,1.6174563210497581,-1.2512397955290453,-0.8850232700083325
1499369120192,1.6784924086366573,-1.2512397955290453,-0.8850232700083325
1499369120208,1.739528496223329,-1.1902037079423735,-0.8850232700083325
1499369120224,1.8005645838102282,-1.1291676203554744,-0.8850232700083325
1499369120240,1.8005645838102282,-1.1291676203554744,-0.8850232700083325
1499369120256,1.8616006713969,-1.0681315327688026,-0.9460593575952316
1499369120272,1.8616006713969,-1.0681315327688026,-0.9460593575952316
1499369120288,1.8616006713969,-1.1291676203554744,-1.0681315327688026
1499369120304,1.8616006713969,-1.1902037079423735,-0.9460593575952316
1499369120320,1.8005645838102282,-1.2512397955290453,-1.0070954451819034
1499369120336,1.6784924086366573,-1.3122758831159445,-1.0070954451819034
1499369120352,1.739528496223329,-1.3122758831159445,-1.0070954451819034
1499369120368,1.739528496223329,-1.2512397955290453,-1.0070954451819034
1499369120384,1.8005645838102282,-1.1902037079423735,-1.0070954451819034
1499369120400,1.8005645838102282,-1.1902037079423735,-0.9460593575952316
1499369120416,1.8616006713969,-1.2512397955290453,-0.9460593575952316
1499369120432,1.8616006713969,-1.1902037079423735,-0.9460593575952316
1499369120448,1.9226367589837992,-1.2512397955290453,-0.9460593575952316
1499369120464,1.8005645838102282,-1.2512397955290453,-0.9460593575952316
1499369120480,1.739528496223329,-1.3122758831159445,-0.9460593575952316
1499369120496,1.6174563210497581,-1.3122758831159445,-0.9460593575952316
1499369120512,1.6784924086366573,-1.3122758831159445,-1.0681315327688026
1499369120528,1.739528496223329,-1.3122758831159445,-1.0681315327688026
1499369120544,1.8005645838102282,-1.3122758831159445,-1.0681315327688026
1499369120560,1.8005645838102282,-1.3122758831159445,-1.1291676203554744
1499369120576,1.739528496223329,-1.1902037079423735,-1.0681315327688026
1499369120592,1.8005645838102282,-1.1291676203554744,-0.9460593575952316
1499369120608,1.8005645838102282,-1.1902037079423735,-0.8850232700083325
1499369120624,1.8616006713969,-1.1291676203554744,-0.8850232700083325
1499369120640,1.8616006713969,-1.1902037079423735,-0.8850232700083325
1499369120656,1.8616006713969,-1.1902037079423735,-0.9460593575952316
1499369120672,1.8005645838102282,-1.1291676203554744,-0.8850232700083325
1499369120688,1.739528496223329,-1.1902037079423735,-0.8850232700083325
1499369120704,1.739528496223329,-1.1902037079423735,-0.9460593575952316
1499369120720,1.8005645838102282,-1.1902037079423735,-0.9460593575952316
1499369120736,1.8005645838102282,-1.1291676203554744,-0.8850232700083325
1499369120752,1.8616006713969,-1.1902037079423735,-0.8850232700083325
1499369120768,1.8616006713969,-1.1902037079423735,-0.8239871824216607
1499369120784,1.8616006713969,-1.1902037079423735,-0.8850232700083325
1499369120800,1.739528496223329,-1.1902037079423735,-0.8850232700083325
1499369120816,1.8005645838102282,-1.1902037079423735,-0.8850232700083325
1499369120832,1.8005645838102282,-1.1902037079423735,-0.8850232700083325
1499369120848,1.8005645838102282,-1.1902037079423735,-0.8850232700083325
1499369120864,1.8005645838102282,-1.2512397955290453,-0.9460593575952316
1499369120880,1.8005645838102282,-1.1902037079423735,-1.0070954451819034
1499369120896,1.8005645838102282,-1.1902037079423735,-1.0681315327688026
1499369120912,1.8005645838102282,-1.1902037079423735,-1.0681315327688026
1499369120928,1.739528496223329,-1.2512397955290453,-1.0070954451819034
1499369120944,1.739528496223329,-1.2512397955290453,-1.0070954451819034
1499369120960,1.739528496223329,-1.1902037079423735,-0.9460593575952316
1499369120976,1.8005645838102282,-1.1902037079423735,-0.9460593575952316
1499369120992,1.9226367589837992,-1.1902037079423735,-0.8239871824216607
1499369121008,1.8616006713969,-1.1291676203554744,-0.8239871824216607
1499369121024,1.8616006713969,-1.2512397955290453,-0.8239871824216607
1499369121040,1.8616006713969,-1.1902037079423735,-0.8239871824216607
1499369121056,1.8005645838102282,-1.1902037079423735,-0.8850232700083325
1499369121072,1.739528496223329,-1.1902037079423735,-0.9460593575952316
1499369121088,1.739528496223329,-1.2512397955290453,-0.8850232700083325
1499369121104,1.739528496223329,-1.1291676203554744,-1.0070954451819034
1499369121120,1.739528496223329,-1.2512397955290453,-1.0070954451819034
1499369121136,1.8005645838102282,-1.2512397955290453,-1.0070954451819034
1499369121152,1.8005645838102282,-1.1902037079423735,-1.0070954451819034
1499369121168,1.739528496223329,-1.1902037079423735,-0.9460593575952316
1499369121184,1.739528496223329,-1.2512397955290453,-0.8239871824216607
1499369121200,1.8005645838102282,-1.2512397955290453,-0.8239871824216607
1499369121216,1.8005645838102282,-1.1902037079423735,-0.7629510948347615
1499369121232,1.8616006713969,-1.1291676203554744,-0.8239871824216607
1499369121248,1.9226367589837992,-1.1902037079423735,-0.8239871824216607
1499369121264,1.9226367589837992,-1.1902037079423735,-0.7629510948347615
1499369121280,1.8616006713969,-1.0681315327688026,-0.7629510948347615
1499369121296,1.8005645838102282,-0.9460593575952316,-0.7629510948347615
1499369121312,1.8005645838102282,-1.0681315327688026,-0.7629510948347615
1499369121328,1.983672846570471,-1.3122758831159445,-0.7629510948347615
1499369121344,2.166781109330941,-1.2512397955290453,-0.8239871824216607
1499369121360,1.9226367589837992,-1.1902037079423735,-0.9460593575952316
1499369121376,1.8005645838102282,-1.1902037079423735,-0.9460593575952316
1499369121392,1.6784924086366573,-1.2512397955290453,-1.0681315327688026
1499369121408,1.6174563210497581,-1.3122758831159445,-1.0681315327688026
1499369121424,1.6174563210497581,-1.3122758831159445,-1.0681315327688026
1499369121439,1.6784924086366573,-1.3122758831159445,-1.0070954451819034
1499369121455,1.739528496223329,-1.2512397955290453,-1.0681315327688026
1499369121471,1.8005645838102282,-1.1291676203554744,-1.0681315327688026
1499369121487,1.8616006713969,-1.1291676203554744,-1.0070954451819034
1499369121503,1.8616006713969,-1.1291676203554744,-0.9460593575952316
1499369121519,1.8005645838102282,-1.1291676203554744,-0.8850232700083325
1499369121535,1.8005645838102282,-1.2512397955290453,-0.8239871824216607
1499369121551,1.739528496223329,-1.2512397955290453,-0.8239871824216607
1499369121567,1.739528496223329,-1.3122758831159445,-0.7629510948347615
1499369121583,1.8005645838102282,-1.3122758831159445,-0.7629510948347615
1499369121599,1.8616006713969,-1.2512397955290453,-0.8239871824216607
1499369121615,1.8616006713969,-1.1902037079423735,-0.8850232700083325
1499369121631,1.8005645838102282,-1.1902037079423735,-0.8239871824216607
1499369121647,1.8005645838102282,-1.2512397955290453,-0.9460593575952316
1499369121663,1.6784924086366573,-1.1902037079423735,-0.9460593575952316
1499369121679,1.739528496223329,-1.2512397955290453,-0.9460593575952316
1499369121695,1.8005645838102282,-1.1902037079423735,-0.9460593575952316
1499369121711,1.739528496223329,-1.1291676203554744,-0.9460593575952316
1499369121727,1.739528496223329,-1.1902037079423735,-0.8850232700083325
1499369121743,1.739528496223329,-1.1902037079423735,-0.8239871824216607
1499369121759,1.8616006713969,-1.2512397955290453,-0.8239871824216607
1499369121775,1.9226367589837992,-1.1902037079423735,-0.8239871824216607
1499369121791,1.8616006713969,-1.1902037079423735,-0.9460593575952316
1499369121807,1.8616006713969,-1.1902037079423735,-0.9460593575952316
1499369121823,1.8005645838102282,-1.1902037079423735,-0.9460593575952316
1499369121839,1.739528496223329,-1.1902037079423735,-1.0070954451819034
1499369121855,1.6784924086366573,-1.2512397955290453,-1.0070954451819034
1499369121871,1.6784924086366573,-1.1902037079423735,-1.0070954451819034
1499369121887,1.6174563210497581,-1.1902037079423735,-0.9460593575952316
1499369121903,1.6784924086366573,-1.2512397955290453,-0.9460593575952316
1499369121919,1.8005645838102282,-1.3122758831159445,-0.8850232700083325
1499369121935,1.8616006713969,-1.3122758831159445,-0.8850232700083325
1499369121951,1.8616006713969,-1.1902037079423735,-0.8850232700083325
1499369121967,1.8616006713969,-1.1902037079423735,-1.0070954451819034
1499369121983,1.8005645838102282,-1.1902037079423735,-1.0070954451819034
1499369121999,1.6784924086366573,-1.2512397955290453,-1.0070954451819034
1499369122015,1.6784924086366573,-1.1902037079423735,-1.0070954451819034
1499369122031,1.6784924086366573,-1.1902037079423735,-1.0070954451819034
1499369122047,1.6784924086366573,-1.1902037079423735,-0.9460593575952316
1499369122063,1.739528496223329,-1.1902037079423735,-1.0070954451819034
1499369122079,1.8616006713969,-1.1291676203554744,-1.0070954451819034
1499369122095,1.8005645838102282,-1.1902037079423735,-0.9460593575952316
1499369122111,1.8005645838102282,-1.2512397955290453,-0.9460593575952316
1499369122127,1.739528496223329,-1.2512397955290453,-0.9460593575952316
1499369122143,1.739528496223329,-1.2512397955290453,-0.9460593575952316
1499369122159,1.6174563210497581,-1.2512397955290453,-0.8850232700083325
1499369122175,1.739528496223329,-1.1902037079423735,-0.8850232700083325
1499369122191,1.8005645838102282,-1.1902037079423735,-0.9460593575952316
1499369122207,1.8005645838102282,-1.1291676203554744,-0.9460593575952316
1499369122223,1.739528496223329,-1.1291676203554744,-1.0070954451819034
1499369122239,1.739528496223329,-1.1291676203554744,-1.0070954451819034
1499369122255,1.8005645838102282,-1.1902037079423735,-1.0070954451819034
1499369122271,1.739528496223329,-1.2512397955290453,-0.9460593575952316
1499369122287,1.739528496223329,-1.2512397955290453,-1.0070954451819034
1499369122303,1.6784924086366573,-1.2512397955290453,-1.0681315327688026
1499369122319,1.6784924086366573,-1.3122758831159445,-1.0070954451819034
1499369122335,1.739528496223329,-1.3122758831159445,-0.9460593575952316
1499369122351,1.6784924086366573,-1.2512397955290453,-0.9460593575952316
1499369122367,1.8005645838102282,-1.1902037079423735,-0.9460593575952316
1499369122383,1.8616006713969,-1.1291676203554744,-1.0070954451819034
1499369122399,1.9226367589837992,-1.1902037079423735,-0.9460593575952316
1499369122415,1.8005645838102282,-1.1902037079423735,-0.8850232700083325
1499369122431,1.8616006713969,-1.1902037079423735,-0.8850232700083325
1499369122447,1.739528496223329,-1.1902037079423735,-0.9460593575952316
1499369122463,1.6174563210497581,-1.2512397955290453,-0.8850232700083325
1499369122479,1.6784924086366573,-1.3122758831159445,-0.8850232700083325
1499369122495,1.739528496223329,-1.2512397955290453,-0.8850232700083325
1499369122511,1.8005645838102282,-1.3122758831159445,-0.8850232700083325
1499369122527,1.739528496223329,-1.2512397955290453,-0.8850232700083325
1499369122543,1.739528496223329,-1.2512397955290453,-0.8850232700083325
1499369122559,1.739528496223329,-1.1902037079423735,-0.9460593575952316
1499369122575,1.739528496223329,-1.2512397955290453,-1.0070954451819034
1499369122591,1.739528496223329,-1.1902037079423735,-0.9460593575952316
1499369122607,1.8005645838102282,-1.2512397955290453,-1.0070954451819034
1499369122623,1.739528496223329,-1.1902037079423735,-1.0681315327688026
1499369122639,1.8005645838102282,-1.1902037079423735,-1.0681315327688026
1499369122655,1.8005645838102282,-1.1902037079423735,-1.0681315327688026
1499369122671,1.6784924086366573,-1.2512397955290453,-1.0681315327688026
1499369122687,1.6784924086366573,-1.1902037079423735,-0.8850232700083325
1499369122703,1.6784924086366573,-1.2512397955290453,-0.8239871824216607
1499369122719,1.6174563210497581,-1.2512397955290453,-0.8239871824216607
1499369122735,1.6174563210497581,-1.3122758831159445,-0.7019150072480898
1499369122751,1.6784924086366573,-1.3122758831159445,-0.7019150072480898
1499369122767,1.8616006713969,-1.3122758831159445,-0.7019150072480898
1499369122783,1.8616006713969,-1.1902037079423735,-0.8239871824216607
1499369122799,1.8616006713969,-1.1902037079423735,-0.8239871824216607
1499369122815,1.8005645838102282,-1.1902037079423735,-0.9460593575952316
1499369122831,1.739528496223329,-1.1902037079423735,-1.0070954451819034
1499369122847,1.6784924086366573,-1.1291676203554744,-1.0681315327688026
1499369122863,1.6784924086366573,-1.1902037079423735,-1.1291676203554744
1499369122879,1.6784924086366573,-1.1902037079423735,-1.1902037079423735
1499369122895,1.6174563210497581,-1.2512397955290453,-1.1291676203554744
1499369122911,1.6784924086366573,-1.1902037079423735,-1.0070954451819034
1499369122927,1.739528496223329,-1.1291676203554744,-1.0070954451819034
1499369122943,1.8005645838102282,-1.0681315327688026,-0.9460593575952316
1499369122959,1.8616006713969,-1.1291676203554744,-0.9460593575952316
1499369122975,1.8616006713969,-1.1291676203554744,-0.8850232700083325
1499369122991,1.8616006713969,-1.0681315327688026,-0.8850232700083325
1499369123007,1.8616006713969,-1.1291676203554744,-0.8850232700083325
1499369123023,1.6784924086366573,-1.1902037079423735,-0.9460593575952316
1499369123038,1.6784924086366573,-1.2512397955290453,-0.8850232700083325
1499369123054,1.6784924086366573,-1.2512397955290453,-0.8850232700083325
1499369123070,1.739528496223329,-1.2512397955290453,-0.8850232700083325
1499369123086,1.8005645838102282,-1.2512397955290453,-0.8850232700083325
1499369123102,1.8005645838102282,-1.2512397955290453,-0.8850232700083325
1499369123118,1.8005645838102282,-1.2512397955290453,-0.8850232700083325
1499369123134,1.739528496223329,-1.3122758831159445,-0.8850232700083325
1499369123150,1.6784924086366573,-1.3122758831159445,-0.8850232700083325
1499369123166,1.739528496223329,-1.2512397955290453,-0.8850232700083325
1499369123182,1.8005645838102282,-1.2512397955290453,-0.9460593575952316
1499369123198,1.8616006713969,-1.2512397955290453,-1.0070954451819034
1499369123214,1.8616006713969,-1.1902037079423735,-1.0681315327688026
1499369123230,1.739528496223329,-1.2512397955290453,-1.0681315327688026
1499369123246,1.739528496223329,-1.1902037079423735,-1.0681315327688026
1499369123262,1.6174563210497581,-1.1902037079423735,-1.0681315327688026
1499369123278,1.6174563210497581,-1.2512397955290453,-1.0070954451819034
1499369123294,1.8005645838102282,-1.2512397955290453,-1.0070954451819034
1499369123310,1.8005645838102282,-1.1902037079423735,-1.0070954451819034
1499369123326,1.8616006713969,-1.1902037079423735,-1.0070954451819034
1499369123342,1.8616006713969,-1.1902037079423735,-1.0070954451819034
1499369123358,1.8616006713969,-1.1902037079423735,-1.0070954451819034
1499369123374,1.8005645838102282,-1.2512397955290453,-1.0070954451819034
1499369123390,1.6784924086366573,-1.3122758831159445,-1.0070954451819034
1499369123406,1.6174563210497581,-1.2512397955290453,-1.0070954451819034
1499369123422,1.739528496223329,-1.3122758831159445,-1.0070954451819034
1499369123438,1.739528496223329,-1.2512397955290453,-0.9460593575952316
1499369123454,1.739528496223329,-1.1902037079423735,-1.0070954451819034
1499369123470,1.739528496223329,-1.1902037079423735,-0.9460593575952316
1499369123486,1.739528496223329,-1.1291676203554744,-1.0070954451819034
1499369123502,1.8005645838102282,-1.1902037079423735,-0.9460593575952316
1499369123518,1.8005645838102282,-1.1902037079423735,-0.9460593575952316
1499369123534,1.739528496223329,-1.1902037079423735,-0.8850232700083325
1499369123550,1.739528496223329,-1.1902037079423735,-0.9460593575952316
1499369123566,1.8005645838102282,-1.1902037079423735,-1.0070954451819034
1499369123582,1.8005645838102282,-1.1902037079423735,-1.0070954451819034
1499369123598,1.8005645838102282,-1.1902037079423735,-0.9460593575952316
1499369123614,1.8005645838102282,-1.1902037079423735,-0.8850232700083325
1499369123630,1.8005645838102282,-1.1902037079423735,-0.8850232700083325
1499369123646,1.8005645838102282,-1.1902037079423735,-0.8850232700083325
1499369123662,1.8616006713969,-1.1902037079423735,-0.8850232700083325
1499369123678,1.8616006713969,-1.1902037079423735,-0.8850232700083325
1499369123694,1.8616006713969,-1.1902037079423735,-0.8850232700083325
1499369123710,1.8005645838102282,-1.1902037079423735,-0.8239871824216607
1499369123726,1.8005645838102282,-1.2512397955290453,-0.9460593575952316
1499369123742,1.8005645838102282,-1.2512397955290453,-1.0070954451819034
1499369123758,1.8005645838102282,-1.2512397955290453,-1.0070954451819034
1499369123774,1.739528496223329,-1.2512397955290453,-1.0681315327688026
1499369123790,1.739528496223329,-1.3122758831159445,-1.1291676203554744
1499369123806,1.6784924086366573,-1.2512397955290453,-1.0681315327688026
1499369123822,1.739528496223329,-1.1902037079423735,-1.1291676203554744
1499369123838,1.739528496223329,-1.1902037079423735,-1.0070954451819034
1499369123854,1.739528496223329,-1.1902037079423735,-0.9460593575952316
1499369123870,1.739528496223329,-1.1902037079423735,-0.8850232700083325
1499369123886,1.8005645838102282,-1.1902037079423735,-0.9460593575952316
1499369123902,1.8616006713969,-1.1902037079423735,-0.8239871824216607
1499369123918,1.8616006713969,-1.1902037079423735,-0.9460593575952316
1499369123934,1.9226367589837992,-1.2512397955290453,-0.9460593575952316
1499369123950,1.8616006713969,-1.1902037079423735,-0.9460593575952316
1499369123966,1.8005645838102282,-1.1291676203554744,-0.9460593575952316
1499369123982,1.739528496223329,-1.1902037079423735,-1.0070954451819034
1499369123998,1.739528496223329,-1.2512397955290453,-1.0070954451819034
1499369124014,1.739528496223329,-1.1902037079423735,-1.0681315327688026
1499369124030,1.739528496223329,-1.1291676203554744,-1.0681315327688026
1499369124046,1.739528496223329,-1.1291676203554744,-1.1291676203554744
1499369124062,1.739528496223329,-1.1902037079423735,-1.0681315327688026
1499369124078,1.739528496223329,-1.2512397955290453,-1.0070954451819034
1499369124094,1.739528496223329,-1.1902037079423735,-1.0070954451819034
1499369124110,1.739528496223329,-1.1902037079423735,-1.0070954451819034
1499369124126,1.8005645838102282,-1.2512397955290453,-0.9460593575952316
1499369124142,1.739528496223329,-1.1902037079423735,-0.9460593575952316
1499369124158,1.739528496223329,-1.1902037079423735,-0.9460593575952316
1499369124174,1.739528496223329,-1.1902037079423735,-0.9460593575952316
1499369124190,1.739528496223329,-1.1291676203554744,-0.9460593575952316
1499369124206,1.739528496223329,-1.1291676203554744,-0.9460593575952316
1499369124222,1.8005645838102282,-1.1902037079423735,-0.8850232700083325
1499369124238,1.8005645838102282,-1.1291676203554744,-0.8239871824216607
1499369124254,1.8005645838102282,-1.2512397955290453,-0.7629510948347615
1499369124270,1.8005645838102282,-1.1902037079423735,-0.8850232700083325
1499369124286,1.739528496223329,-1.2512397955290453,-0.9460593575952316
1499369124302,1.6784924086366573,-1.3122758831159445,-1.0070954451819034
1499369124318,1.739528496223329,-1.3122758831159445,-1.1291676203554744
1499369124334,1.6784924086366573,-1.3122758831159445,-1.0681315327688026
1499369124350,1.6784924086366573,-1.3733119707026162,-1.0681315327688026
1499369124366,1.6784924086366573,-1.3122758831159445,-1.0070954451819034
1499369124382,1.739528496223329,-1.2512397955290453,-1.0070954451819034
1499369124398,1.8005645838102282,-1.1902037079423735,-1.0070954451819034
1499369124414,1.8616006713969,-1.1902037079423735,-0.9460593575952316
1499369124430,1.8616006713969,-1.2512397955290453,-0.8850232700083325
1499369124446,1.8005645838102282,-1.2512397955290453,-0.9460593575952316
1499369124462,1.8005645838102282,-1.2512397955290453,-0.8850232700083325
1499369124478,1.8616006713969,-1.3733119707026162,-0.8239871824216607
1499369124494,1.8005645838102282,-1.3733119707026162,-0.8850232700083325
1499369124510,1.8005645838102282,-1.3122758831159445,-0.9460593575952316
1499369124526,1.8005645838102282,-1.2512397955290453,-0.9460593575952316
1499369124542,1.8005645838102282,-1.2512397955290453,-0.9460593575952316
1499369124558,1.8616006713969,-1.3122758831159445,-0.9460593575952316
1499369124574,1.8616006713969,-1.2512397955290453,-1.0681315327688026
1499369124590,1.739528496223329,-1.1902037079423735,-1.0070954451819034
1499369124606,1.6784924086366573,-1.1902037079423735,-0.9460593575952316
1499369124622,1.739528496223329,-1.1902037079423735,-0.8850232700083325
1499369124637,1.739528496223329,-1.2512397955290453,-0.9460593575952316
1499369124653,1.8005645838102282,-1.2512397955290453,-1.0070954451819034
1499369124669,1.739528496223329,-1.1902037079423735,-1.0070954451819034
1499369124685,1.739528496223329,-1.1291676203554744,-1.0681315327688026
1499369124701,1.739528496223329,-1.2512397955290453,-1.0681315327688026
1499369124717,1.739528496223329,-1.2512397955290453,-1.0070954451819034
1499369124733,1.739528496223329,-1.1902037079423735,-0.9460593575952316
1499369124749,1.739528496223329,-1.1902037079423735,-0.9460593575952316
1499369124765,1.739528496223329,-1.1291676203554744,-0.8239871824216607
1499369124781,1.739528496223329,-1.1291676203554744,-0.8239871824216607
1499369124797,1.8616006713969,-1.1902037079423735,-0.7629510948347615
1499369124813,1.9226367589837992,-1.1902037079423735,-0.8850232700083325
1499369124829,1.9226367589837992,-1.1291676203554744,-0.8239871824216607
1499369124845,1.8005645838102282,-1.1902037079423735,-0.8850232700083325
1499369124861,1.6784924086366573,-1.2512397955290453,-0.9460593575952316
1499369124877,1.6174563210497581,-1.3122758831159445,-1.0070954451819034
1499369124893,1.6784924086366573,-1.2512397955290453,-0.9460593575952316
1499369124909,1.739528496223329,-1.1902037079423735,-0.9460593575952316
1499369124925,1.8005645838102282,-1.1291676203554744,-1.0070954451819034
1499369124941,1.8005645838102282,-1.1902037079423735,-1.0681315327688026
1499369124957,1.8005645838102282,-1.1902037079423735,-1.0070954451819034
1499369124973,1.8005645838102282,-1.1291676203554744,-0.8850232700083325
1499369124989,1.739528496223329,-1.2512397955290453,-0.8850232700083325
1499369125005,1.739528496223329,-1.3122758831159445,-0.8239871824216607
1499369125021,1.8005645838102282,-1.2512397955290453,-0.8239871824216607
1499369125037,1.739528496223329,-1.3122758831159445,-0.8239871824216607
1499369125053,1.8005645838102282,-1.2512397955290453,-0.8239871824216607
1499369125069,1.8005645838102282,-1.2512397955290453,-0.8850232700083325
1499369125085,1.8005645838102282,-1.1902037079423735,-0.9460593575952316
1499369125101,1.6784924086366573,-1.2512397955290453,-1.0070954451819034
1499369125117,1.6784924086366573,-1.1902037079423735,-1.0070954451819034
1499369125133,1.739528496223329,-1.1902037079423735,-1.0070954451819034
1499369125149,1.739528496223329,-1.1902037079423735,-1.0070954451819034
1499369125165,1.8005645838102282,-1.1902037079423735,-1.0070954451819034
1499369125181,1.8005645838102282,-1.1902037079423735,-1.0070954451819034
1499369125197,1.8005645838102282,-1.1902037079423735,-1.0070954451819034
1499369125213,1.8005645838102282,-1.2512397955290453,-0.8850232700083325
1499369125229,1.8005645838102282,-1.2512397955290453,-0.8850232700083325
1499369125245,1.739528496223329,-1.1902037079423735,-0.9460593575952316
1499369125261,1.739528496223329,-1.1291676203554744,-0.9460593575952316
1499369125277,1.8005645838102282,-1.1291676203554744,-0.9460593575952316
1499369125293,1.9226367589837992,-1.1902037079423735,-0.9460593575952316
1499369125309,1.8005645838102282,-1.1902037079423735,-1.0070954451819034
1499369125325,1.8005645838102282,-1.1291676203554744,-0.8850232700083325
1499369125341,1.6784924086366573,-1.1902037079423735,-0.8850232700083325
1499369125357,1.6784924086366573,-1.2512397955290453,-0.8239871824216607
1499369125373,1.8005645838102282,-1.3122758831159445,-0.8239871824216607
1499369125389,1.8005645838102282,-1.3122758831159445,-0.8239871824216607
1499369125405,1.8616006713969,-1.2512397955290453,-0.8239871824216607
1499369125421,1.8005645838102282,-1.1902037079423735,-0.8850232700083325
1499369125437,1.8616006713969,-1.3122758831159445,-0.8850232700083325
1499369125453,1.8616006713969,-1.2512397955290453,-0.8850232700083325
1499369125469,1.739528496223329,-1.2512397955290453,-0.8850232700083325
1499369125485,1.739528496223329,-1.1902037079423735,-0.8850232700083325
1499369125501,1.739528496223329,-1.1902037079423735,-0.9460593575952316
1499369125517,1.739528496223329,-1.1902037079423735,-1.0681315327688026
1499369125533,1.739528496223329,-1.1902037079423735,-1.0681315327688026
1499369125549,1.739528496223329,-1.1902037079423735,-1.0681315327688026
1499369125565,1.8005645838102282,-1.2512397955290453,-0.9460593575952316
1499369125581,1.739528496223329,-1.2512397955290453,-0.9460593575952316
1499369125597,1.6784924086366573,-1.1902037079423735,-0.8850232700083325
1499369125613,1.6784924086366573,-1.2512397955290453,-0.9460593575952316
1499369125629,1.739528496223329,-1.2512397955290453,-0.8850232700083325
1499369125645,1.739528496223329,-1.1291676203554744,-0.9460593575952316
1499369125661,1.739528496223329,-1.1291676203554744,-0.8850232700083325
1499369125677,1.739528496223329,-1.0681315327688026,-0.9460593575952316
1499369125693,1.739528496223329,-1.1291676203554744,-0.9460593575952316
1499369125709,1.739528496223329,-1.1291676203554744,-0.9460593575952316
1499369125725,1.739528496223329,-1.1291676203554744,-1.0070954451819034
1499369125741,1.8005645838102282,-1.1902037079423735,-1.0070954451819034
1499369125757,1.739528496223329,-1.1902037079423735,-1.0070954451819034
1499369125773,1.6784924086366573,-1.2512397955290453,-1.0070954451819034
1499369125789,1.6784924086366573,-1.1902037079423735,-1.0070954451819034
1499369125805,1.6784924086366573,-1.3122758831159445,-0.9460593575952316
1499369125821,1.6784924086366573,-1.2512397955290453,-0.9460593575952316
1499369125837,1.6784924086366573,-1.1902037079423735,-0.9460593575952316
1499369125853,1.6784924086366573,-1.2512397955290453,-0.9460593575952316
1499369125869,1.739528496223329,-1.2512397955290453,-0.9460593575952316
1499369125885,1.739528496223329,-1.2512397955290453,-0.8850232700083325
1499369125901,1.739528496223329,-1.1902037079423735,-0.9460593575952316
1499369125917,1.6784924086366573,-1.2512397955290453,-0.9460593575952316
1499369125933,1.6784924086366573,-1.2512397955290453,-0.8850232700083325
1499369125949,1.8005645838102282,-1.3122758831159445,-0.8239871824216607
1499369125965,1.8616006713969,-1.3122758831159445,-0.8239871824216607
1499369125981,1.8616006713969,-1.4343480582895154,-0.8850232700083325
1499369125997,1.8005645838102282,-1.4343480582895154,-0.8850232700083325
1499369126013,1.8005645838102282,-1.4343480582895154,-1.0070954451819034
1499369126029,1.739528496223329,-1.3733119707026162,-0.9460593575952316
1499369126045,1.739528496223329,-1.3122758831159445,-1.0070954451819034
1499369126061,1.739528496223329,-1.3122758831159445,-1.0070954451819034
1499369126077,1.739528496223329,-1.1902037079423735,-1.0070954451819034
1499369126093,1.739528496223329,-1.1902037079423735,-1.0681315327688026
1499369126109,1.739528496223329,-1.2512397955290453,-1.0681315327688026
1499369126125,1.8005645838102282,-1.2512397955290453,-1.0681315327688026
1499369126141,1.739528496223329,-1.2512397955290453,-1.0070954451819034
1499369126157,1.6784924086366573,-1.2512397955290453,-0.8850232700083325
1499369126173,1.6174563210497581,-1.2512397955290453,-0.8850232700083325
1499369126189,1.6784924086366573,-1.2512397955290453,-0.9460593575952316
1499369126205,1.6784924086366573,-1.2512397955290453,-0.8239871824216607
1499369126220,1.739528496223329,-1.1291676203554744,-0.8850232700083325
1499369126236,1.8005645838102282,-1.1291676203554744,-0.8239871824216607
1499369126252,1.8005645838102282,-1.0070954451819034,-0.9460593575952316
1499369126268,1.8005645838102282,-1.0070954451819034,-1.0070954451819034
1499369126284,1.739528496223329,-1.0070954451819034,-1.0070954451819034
1499369126300,1.6784924086366573,-1.1291676203554744,-1.0070954451819034
1499369126316,1.739528496223329,-1.1902037079423735,-1.0070954451819034
1499369126332,1.739528496223329,-1.2512397955290453,-1.0681315327688026
1499369126348,1.739528496223329,-1.3122758831159445,-1.0681315327688026
1499369126364,1.6784924086366573,-1.3122758831159445,-1.1291676203554744
1499369126380,1.6784924086366573,-1.4343480582895154,-1.0070954451819034
1499369126396,1.6784924086366573,-1.4953841458761872,-0.9460593575952316
1499369126412,1.6784924086366573,-1.4343480582895154,-0.8850232700083325
1499369126428,1.739528496223329,-1.3122758831159445,-0.8850232700083325
1499369126444,1.8005645838102282,-1.3122758831159445,-0.9460593575952316
1499369126460,1.8005645838102282,-1.3122758831159445,-0.9460593575952316
1499369126476,1.8005645838102282,-1.2512397955290453,-0.9460593575952316
1499369126492,1.8005645838102282,-1.1902037079423735,-0.8850232700083325
1499369126508,1.8005645838102282,-1.1902037079423735,-0.8850232700083325
1499369126524,1.739528496223329,-1.1902037079423735,-0.8850232700083325
1499369126540,1.739528496223329,-1.2512397955290453,-0.8850232700083325
1499369126556,1.739528496223329,-1.2512397955290453,-0.8850232700083325
1499369126572,1.739528496223329,-1.1902037079423735,-0.8850232700083325
1499369126588,1.739528496223329,-1.1902037079423735,-0.9460593575952316
1499369126604,1.739528496223329,-1.1291676203554744,-0.8850232700083325
1499369126620,1.739528496223329,-1.1291676203554744,-0.8850232700083325
1499369126636,1.8005645838102282,-1.1902037079423735,-0.8850232700083325
1499369126652,1.739528496223329,-1.1902037079423735,-0.9460593575952316
1499369126668,1.739528496223329,-1.1902037079423735,-0.9460593575952316
1499369126684,1.739528496223329,-1.1902037079423735,-1.0070954451819034
1499369126700,1.6784924086366573,-1.1902037079423735,-1.0070954451819034
1499369126716,1.6784924086366573,-1.1902037079423735,-1.0681315327688026
1499369126732,1.6784924086366573,-1.3122758831159445,-1.0070954451819034
1499369126748,1.739528496223329,-1.3122758831159445,-1.0070954451819034
1499369126764,1.739528496223329,-1.3122758831159445,-0.9460593575952316
1499369126780,1.739528496223329,-1.3122758831159445,-1.0070954451819034
1499369126796,1.6784924086366573,-1.3122758831159445,-0.8850232700083325
1499369126812,1.739528496223329,-1.2512397955290453,-0.8850232700083325
1499369126828,1.739528496223329,-1.1902037079423735,-0.8850232700083325
1499369126844,1.8005645838102282,-1.1902037079423735,-0.8850232700083325
1499369126860,1.8616006713969,-1.1291676203554744,-0.8850232700083325
1499369126876,1.8005645838102282,-1.1291676203554744,-1.0070954451819034
1499369126892,1.739528496223329,-1.1291676203554744,-0.9460593575952316
1499369126908,1.739528496223329,-1.1902037079423735,-0.9460593575952316
1499369126924,1.739528496223329,-1.1902037079423735,-0.9460593575952316
1499369126940,1.8616006713969,-1.3122758831159445,-1.0681315327688026
1499369126956,1.739528496223329,-1.2512397955290453,-1.0681315327688026
1499369126972,1.8005645838102282,-1.1902037079423735,-1.0681315327688026
1499369126988,1.8616006713969,-1.1902037079423735,-1.0070954451819034
1499369127004,1.739528496223329,-1.2512397955290453,-0.9460593575952316
1499369127020,1.8005645838102282,-1.1902037079423735,-0.9460593575952316
1499369127036,1.8005645838102282,-1.1902037079423735,-0.9460593575952316
1499369127052,1.8616006713969,-1.1902037079423735,-0.9460593575952316
1499369127068,1.8616006713969,-1.1902037079423735,-1.0070954451819034
1499369127084,1.8005645838102282,-1.1902037079423735,-1.0070954451819034
1499369127100,1.739528496223329,-1.1902037079423735,-0.9460593575952316
1499369127116,1.6784924086366573,-1.2512397955290453,-1.0070954451819034
1499369127132,1.6784924086366573,-1.3122758831159445,-0.9460593575952316
1499369127148,1.739528496223329,-1.3733119707026162,-0.8850232700083325
1499369127164,1.8005645838102282,-1.3122758831159445,-0.9460593575952316
1499369127180,1.8005645838102282,-1.1902037079423735,-0.8850232700083325
1499369127196,1.8005645838102282,-1.1902037079423735,-0.8850232700083325
1499369127212,1.8005645838102282,-1.1902037079423735,-0.9460593575952316
1499369127228,1.8005645838102282,-1.1291676203554744,-0.9460593575952316
1499369127244,1.739528496223329,-1.1902037079423735,-1.0070954451819034
1499369127260,1.8005645838102282,-1.2512397955290453,-1.0681315327688026
1499369127276,1.8005645838102282,-1.2512397955290453,-1.1291676203554744
1499369127292,1.8005645838102282,-1.2512397955290453,-1.0681315327688026
1499369127308,1.8005645838102282,-1.2512397955290453,-1.0070954451819034
1499369127324,1.8616006713969,-1.3122758831159445,-1.0070954451819034
1499369127340,1.8005645838102282,-1.3122758831159445,-0.9460593575952316
1499369127356,1.8005645838102282,-1.3122758831159445,-0.9460593575952316
1499369127372,1.8616006713969,-1.2512397955290453,-0.8850232700083325
1499369127388,1.8616006713969,-1.2512397955290453,-0.9460593575952316
1499369127404,1.8005645838102282,-1.3122758831159445,-0.8850232700083325
1499369127420,1.8005645838102282,-1.3122758831159445,-0.8850232700083325
1499369127436,1.8005645838102282,-1.3122758831159445,-1.0070954451819034
1499369127452,1.739528496223329,-1.3122758831159445,-1.0681315327688026
1499369127468,1.6784924086366573,-1.3122758831159445,-1.0681315327688026
1499369127484,1.6174563210497581,-1.3122758831159445,-1.0681315327688026
1499369127500,1.6784924086366573,-1.2512397955290453,-1.0681315327688026
1499369127516,1.739528496223329,-1.1902037079423735,-1.0070954451819034
1499369127532,1.8005645838102282,-1.0681315327688026,-1.0070954451819034
1499369127548,1.8005645838102282,-1.0681315327688026,-1.0070954451819034
1499369127564,1.8005645838102282,-1.0681315327688026,-0.8850232700083325
1499369127580,1.8005645838102282,-1.1291676203554744,-0.9460593575952316
1499369127596,1.8005645838102282,-1.1291676203554744,-0.8850232700083325
1499369127612,1.8005645838102282,-1.1902037079423735,-0.8850232700083325
1499369127628,1.8005645838102282,-1.2512397955290453,-0.9460593575952316
1499369127644,1.8005645838102282,-1.2512397955290453,-0.9460593575952316
1499369127660,1.6784924086366573,-1.2512397955290453,-0.9460593575952316
1499369127676,1.6784924086366573,-1.3122758831159445,-0.8850232700083325
1499369127692,1.6784924086366573,-1.3122758831159445,-0.9460593575952316
1499369127708,1.6784924086366573,-1.3122758831159445,-0.9460593575952316
1499369127724,1.8005645838102282,-1.1902037079423735,-0.8239871824216607
1499369127740,1.8005645838102282,-1.1902037079423735,-0.8850232700083325
1499369127756,1.8005645838102282,-1.2512397955290453,-0.8850232700083325
1499369127772,1.739528496223329,-1.2512397955290453,-0.8850232700083325
1499369127788,1.739528496223329,-1.2512397955290453,-0.8850232700083325
1499369127804,1.8005645838102282,-1.1902037079423735,-0.8850232700083325
1499369127819,1.8005645838102282,-1.1902037079423735,-1.0070954451819034
1499369127835,1.8005645838102282,-1.2512397955290453,-1.0681315327688026
1499369127851,1.8005645838102282,-1.2512397955290453,-1.0681315327688026
1499369127867,1.739528496223329,-1.2512397955290453,-1.0681315327688026
1499369127883,1.739528496223329,-1.1291676203554744,-1.0070954451819034
1499369127899,1.8005645838102282,-1.2512397955290453,-0.9460593575952316
1499369127915,1.739528496223329,-1.1902037079423735,-0.9460593575952316
1499369127931,1.8005645838102282,-1.2512397955290453,-0.8850232700083325
1499369127947,1.739528496223329,-1.2512397955290453,-0.8239871824216607
1499369127963,1.739528496223329,-1.2512397955290453,-0.8239871824216607
1499369127979,1.739528496223329,-1.2512397955290453,-0.8239871824216607
1499369127995,1.739528496223329,-1.2512397955290453,-0.8239871824216607
1499369128011,1.8005645838102282,-1.2512397955290453,-0.8239871824216607
1499369128027,1.8005645838102282,-1.1902037079423735,-0.9460593575952316
1499369128043,1.8005645838102282,-1.2512397955290453,-1.0070954451819034
1499369128059,1.8005645838102282,-1.2512397955290453,-1.0681315327688026
1499369128075,1.739528496223329,-1.2512397955290453,-1.0681315327688026
1499369128091,1.739528496223329,-1.2512397955290453,-1.0681315327688026
1499369128107,1.739528496223329,-1.2512397955290453,-1.0070954451819034
1499369128123,1.6784924086366573,-1.2512397955290453,-1.0070954451819034
1499369128139,1.6784924086366573,-1.2512397955290453,-0.8850232700083325
1499369128155,1.739528496223329,-1.2512397955290453,-0.8850232700083325
1499369128171,1.739528496223329,-1.2512397955290453,-0.8850232700083325
1499369128187,1.8005645838102282,-1.2512397955290453,-0.9460593575952316
1499369128203,1.8616006713969,-1.1902037079423735,-0.8850232700083325
1499369128219,1.8005645838102282,-1.1902037079423735,-0.8850232700083325
1499369128235,1.8005645838102282,-1.2512397955290453,-0.8850232700083325
1499369128251,1.8005645838102282,-1.1902037079423735,-0.8850232700083325
1499369128267,1.739528496223329,-1.1902037079423735,-0.8850232700083325
1499369128283,1.739528496223329,-1.1902037079423735,-0.8850232700083325
1499369128299,1.739528496223329,-1.1902037079423735,-0.8239871824216607
1499369128315,1.739528496223329,-1.1902037079423735,-0.8239871824216607
1499369128331,1.8005645838102282,-1.2512397955290453,-0.8239871824216607
1499369128347,1.739528496223329,-1.1902037079423735,-0.8850232700083325
1499369128363,1.8616006713969,-1.2512397955290453,-0.8850232700083325
1499369128379,1.8005645838102282,-1.1902037079423735,-0.9460593575952316
1499369128395,1.739528496223329,-1.1902037079423735,-1.0070954451819034
1499369128411,1.739528496223329,-1.1902037079423735,-0.9460593575952316
1499369128427,1.739528496223329,-1.1902037079423735,-0.9460593575952316
1499369128443,1.739528496223329,-1.1902037079423735,-0.9460593575952316
1499369128459,1.8616006713969,-1.1902037079423735,-0.9460593575952316
1499369128475,1.8005645838102282,-1.2512397955290453,-0.9460593575952316
1499369128491,1.8005645838102282,-1.2512397955290453,-0.9460593575952316
1499369128507,1.8005645838102282,-1.2512397955290453,-0.8850232700083325
1499369128523,1.739528496223329,-1.2512397955290453,-0.8850232700083325
1499369128539,1.739528496223329,-1.2512397955290453,-0.8239871824216607
1499369128555,1.8005645838102282,-1.2512397955290453,-0.8239871824216607
1499369128571,1.8005645838102282,-1.2512397955290453,-0.7629510948347615
1499369128587,1.8616006713969,-1.2512397955290453,-0.8850232700083325
1499369128603,1.739528496223329,-1.1291676203554744,-0.9460593575952316
1499369128619,1.739528496223329,-1.1291676203554744,-0.9460593575952316
1499369128635,1.6784924086366573,-1.1291676203554744,-1.0070954451819034
1499369128651,1.6784924086366573,-1.1902037079423735,-0.9460593575952316
1499369128667,1.6784924086366573,-1.1902037079423735,-0.9460593575952316
1499369128683,1.739528496223329,-1.1902037079423735,-0.9460593575952316
1499369128699,1.6784924086366573,-1.1291676203554744,-1.0070954451819034
1499369128715,1.8005645838102282,-1.1902037079423735,-0.9460593575952316
1499369128731,1.8005645838102282,-1.1291676203554744,-0.8850232700083325
1499369128747,1.8005645838102282,-1.1902037079423735,-0.9460593575952316
1499369128763,1.8005645838102282,-1.1902037079423735,-1.0070954451819034
1499369128779,1.739528496223329,-1.2512397955290453,-0.8850232700083325
1499369128795,1.739528496223329,-1.1902037079423735,-0.9460593575952316
1499369128811,1.739528496223329,-1.2512397955290453,-0.9460593575952316
1499369128827,1.739528496223329,-1.2512397955290453,-0.9460593575952316
1499369128843,1.8005645838102282,-1.2512397955290453,-0.8850232700083325
1499369128859,1.739528496223329,-1.2512397955290453,-0.8850232700083325
1499369128875,1.6784924086366573,-1.2512397955290453,-0.8850232700083325
1499369128891,1.739528496223329,-1.3122758831159445,-0.8850232700083325
1499369128907,1.739528496223329,-1.2512397955290453,-0.8239871824216607
1499369128923,1.739528496223329,-1.3122758831159445,-0.8239871824216607
1499369128939,1.8005645838102282,-1.2512397955290453,-0.8239871824216607
1499369128955,1.8616006713969,-1.3122758831159445,-0.8239871824216607
1499369128971,1.739528496223329,-1.2512397955290453,-0.8850232700083325
1499369128987,1.739528496223329,-1.2512397955290453,-0.9460593575952316
1499369129003,1.739528496223329,-1.2512397955290453,-0.9460593575952316
1499369129019,1.739528496223329,-1.1902037079423735,-1.0681315327688026
1499369129035,1.739528496223329,-1.2512397955290453,-1.0070954451819034
1499369129051,1.6784924086366573,-1.2512397955290453,-1.0681315327688026
1499369129067,1.6784924086366573,-1.2512397955290453,-1.0681315327688026
1499369129083,1.6784924086366573,-1.1902037079423735,-1.0070954451819034
1499369129099,1.6784924086366573,-1.2512397955290453,-0.9460593575952316
1499369129115,1.739528496223329,-1.1902037079423735,-0.9460593575952316
1499369129131,1.739528496223329,-1.1902037079423735,-0.9460593575952316
1499369129147,1.739528496223329,-1.2512397955290453,-0.9460593575952316
1499369129163,1.739528496223329,-1.2512397955290453,-0.9460593575952316
1499369129179,1.8005645838102282,-1.1902037079423735,-0.9460593575952316
1499369129195,1.739528496223329,-1.1902037079423735,-1.0070954451819034
1499369129211,1.6784924086366573,-1.1291676203554744,-1.0681315327688026
1499369129227,1.6784924086366573,-1.1902037079423735,-1.0681315327688026
1499369129243,1.6784924086366573,-1.2512397955290453,-1.0681315327688026
1499369129259,1.6784924086366573,-1.3122758831159445,-1.0070954451819034
1499369129275,1.739528496223329,-1.1902037079423735,-1.0681315327688026
1499369129291,1.739528496223329,-1.2512397955290453,-1.0070954451819034
1499369129307,1.6174563210497581,-1.2512397955290453,-1.0070954451819034
1499369129323,1.739528496223329,-1.2512397955290453,-0.8850232700083325
1499369129339,1.739528496223329,-1.1902037079423735,-0.8239871824216607
1499369129355,1.739528496223329,-1.1291676203554744,-0.8850232700083325
1499369129371,1.8005645838102282,-1.1291676203554744,-0.8850232700083325
1499369129387,1.8616006713969,-1.0681315327688026,-0.9460593575952316
1499369129403,1.8616006713969,-1.1291676203554744,-0.9460593575952316
1499369129418,1.8005645838102282,-1.1291676203554744,-1.0070954451819034
1499369129434,1.739528496223329,-1.1291676203554744,-1.0070954451819034
1499369129450,1.739528496223329,-1.1902037079423735,-0.9460593575952316
1499369129466,1.6784924086366573,-1.2512397955290453,-0.9460593575952316
1499369129482,1.6784924086366573,-1.2512397955290453,-0.9460593575952316
1499369129498,1.8005645838102282,-1.1902037079423735,-0.8850232700083325
1499369129514,1.8005645838102282,-1.1902037079423735,-0.8239871824216607
1499369129530,1.739528496223329,-1.1902037079423735,-0.8850232700083325
1499369129546,1.6784924086366573,-1.2512397955290453,-0.8850232700083325
1499369129562,1.739528496223329,-1.2512397955290453,-0.9460593575952316
1499369129578,1.739528496223329,-1.2512397955290453,-0.9460593575952316
1499369129594,1.739528496223329,-1.2512397955290453,-0.9460593575952316
1499369129610,1.739528496223329,-1.2512397955290453,-1.0070954451819034
1499369129626,1.739528496223329,-1.2512397955290453,-1.0070954451819034
1499369129642,1.6784924086366573,-1.2512397955290453,-0.9460593575952316
1499369129658,1.739528496223329,-1.3733119707026162,-0.9460593575952316
1499369129674,1.739528496223329,-1.3122758831159445,-0.9460593575952316
1499369129690,1.8005645838102282,-1.1902037079423735,-1.0070954451819034
1499369129706,1.8005645838102282,-1.2512397955290453,-1.0070954451819034
1499369129722,1.739528496223329,-1.3122758831159445,-1.0070954451819034
1499369129738,1.739528496223329,-1.2512397955290453,-0.9460593575952316
1499369129754,1.8005645838102282,-1.1291676203554744,-0.9460593575952316
1499369129770,1.8616006713969,-1.1291676203554744,-0.8850232700083325
1499369129786,1.6784924086366573,-1.1902037079423735,-0.8850232700083325
1499369129802,1.739528496223329,-1.1902037079423735,-0.9460593575952316
1499369129818,1.6784924086366573,-1.1902037079423735,-0.9460593575952316
1499369129834,1.6784924086366573,-1.3122758831159445,-1.0070954451819034
1499369129850,1.6784924086366573,-1.3122758831159445,-1.0070954451819034
1499369129866,1.739528496223329,-1.2512397955290453,-1.0070954451819034
1499369129882,1.8005645838102282,-1.2512397955290453,-1.0070954451819034
1499369129898,1.739528496223329,-1.2512397955290453,-1.0070954451819034
1499369129914,1.739528496223329,-1.2512397955290453,-0.8850232700083325
1499369129930,1.8005645838102282,-1.2512397955290453,-0.8239871824216607
1499369129946,1.8005645838102282,-1.1291676203554744,-0.8239871824216607
1499369129962,1.8616006713969,-1.1291676203554744,-0.9460593575952316
1499369129978,1.8005645838102282,-1.1291676203554744,-0.9460593575952316
1499369129994,1.8005645838102282,-1.1291676203554744,-0.9460593575952316
1499369130010,1.9226367589837992,-1.1902037079423735,-0.9460593575952316
1499369130026,1.8616006713969,-1.2512397955290453,-0.9460593575952316
1499369130042,1.739528496223329,-1.2512397955290453,-0.8850232700083325
1499369130058,1.6784924086366573,-1.3122758831159445,-0.8850232700083325
1499369130074,1.6784924086366573,-1.3733119707026162,-0.8850232700083325
1499369130090,1.6784924086366573,-1.3122758831159445,-0.8850232700083325
1499369130106,1.739528496223329,-1.3122758831159445,-0.8850232700083325
1499369130122,1.739528496223329,-1.2512397955290453,-0.9460593575952316
1499369130138,1.6784924086366573,-1.2512397955290453,-0.9460593575952316
1499369130154,1.739528496223329,-1.2512397955290453,-0.9460593575952316
1499369130170,1.739528496223329,-1.2512397955290453,-0.9460593575952316
1499369130186,1.8005645838102282,-1.2512397955290453,-0.9460593575952316
1499369130202,1.8005645838102282,-1.2512397955290453,-1.0070954451819034
1499369130218,1.8005645838102282,-1.1902037079423735,-1.0070954451819034
1499369130234,1.739528496223329,-1.1902037079423735,-1.0681315327688026
1499369130250,1.739528496223329,-1.2512397955290453,-1.0070954451819034
1499369130266,1.739528496223329,-1.2512397955290453,-1.0681315327688026
