Timestamp (ms),Accel X (g),Accel Y (g),Accel Z (g)
1499368325888,-0.19476615548943332,0.9781033035782407,0.18707560845349835
1499368325920,-0.2074616617074847,0.9849393453879607,0.19293507286182976
1499368325952,-0.20209048599984758,0.9766384374761579,0.19244678416113548
1499368325984,-0.19085984588387905,0.9824979018844893,0.19049362935835834
1499368326016,-0.1928130006866562,0.9741969939726864,0.2066071564812697
1499368326048,-0.19623102159151617,0.9732204165712979,0.18512245365072122
1499368326080,-0.1986724650949876,0.9781033035782407,0.18121614404516695
1499368326112,-0.20013733119707044,0.9737087052719922,0.17242694743266984
1499368326144,-0.1923247119859619,0.9727321278706036,0.1890287632562755
1499368326176,-0.19720759899290474,0.9741969939726864,0.1885404745555812
1499368326208,-0.20404364080262472,0.9732204165712979,0.17828641184100125
1499368326240,-0.20599679560540185,0.9795681696803236,0.1885404745555812
1499368326272,-0.20404364080262472,0.9712672617685207,0.1943999389639126
1499368326304,-0.201113908598459,0.9810330357824064,0.16949721522850414
1499368326336,-0.18890669108110192,0.9732204165712979,0.18658731975280407
1499368326368,-0.19623102159151617,0.964919508659495,0.18414587624933265
1499368326400,-0.2016021972991533,0.971755550469215,0.207095445181964
1499368326432,-0.1893949797817962,0.9776150148775464,0.1885404745555812
1499368326465,-0.1893949797817962,0.968337529564355,0.1885404745555812
1499368326497,-0.1986724650949876,0.9776150148775464,0.1919584954604412
1499368326529,-0.1957427328908219,0.9756618600747693,0.20514229037918685
1499368326561,-0.18304722667277007,0.9834744792858778,0.19244678416113548
1499368326593,-0.19769588769359903,0.9756618600747693,0.1885404745555812
1499368326625,-0.19085984588387905,0.9839627679865721,0.1919584954604412
1499368326657,-0.19085984588387905,0.9776150148775464,0.2066071564812697
1499368326689,-0.19330128938735047,0.9707789730678265,0.19830624856946688
1499368326721,-0.19476615548943332,0.9732204165712979,0.1860990310521098
1499368326753,-0.19476615548943332,0.9746852826733807,0.19342336156252404
1499368326785,-0.20794995040817899,0.9741969939726864,0.19635309376668975
1499368326817,-0.19134813458457334,0.9766384374761579,0.19098191805905262
1499368326849,-0.19623102159151617,0.9639429312581065,0.1856107423514155
1499368326881,-0.20404364080262472,0.9693141069657436,0.1797512779430841
1499368326913,-0.19427786678873904,0.9732204165712979,0.19684138246738403
1499368326945,-0.19476615548943332,0.9673609521629665,0.18658731975280407
1499368326977,-0.20794995040817899,0.9673609521629665,0.20172426947432687
1499368327009,-0.20404364080262472,0.982009613183795,0.20465400167849257
1499368327041,-0.20404364080262472,0.9546654459449151,0.18658731975280407
1499368327073,-0.2016021972991533,0.9907988097962921,0.19830624856946688
1499368327105,-0.20599679560540185,0.9707789730678265,0.20807202258335256
1499368327137,-0.1981841763942933,0.9756618600747693,0.20123598077363258
1499368327174,-0.20697337300679042,0.9678492408636608,0.20514229037918685
1499368327206,-0.19769588769359903,0.9810330357824064,0.21686121919584966
1499368327238,-0.20502021820401328,0.9619897764553293,0.1973296711680783
1499368327270,-0.2016021972991533,0.9702906843671322,0.20807202258335256
1499368327302,-0.204531929503319,0.9732204165712979,0.21197833218890683
1499368327334,-0.20599679560540185,0.971755550469215,0.21100175478751826
1499368327366,-0.19476615548943332,0.964919508659495,0.20856031128404684
1499368327398,-0.20892652780956755,0.9624780651560236,0.21783779659723823
1499368327430,-0.19623102159151617,0.9947051194018464,0.22272068360418107
1499368327462,-0.18988326848249049,0.985427634088655,0.1978179598687726
1499368327494,-0.18255893797207579,0.9800564583810178,0.20172426947432687
1499368327526,-0.1923247119859619,0.9771267261768521,0.2007476920729383
1499368327558,-0.19378957808804476,0.9624780651560236,0.23248645761806674
1499368327590,-0.17523460746166153,0.9800564583810178,0.18658731975280407
1499368327622,-0.19378957808804476,0.9737087052719922,0.2188143739986268
1499368327654,-0.1928130006866562,0.9849393453879607,0.20807202258335256
1499368327686,-0.19671931029221046,0.9878690775921264,0.2246738384069582
1499368327718,-0.1952544441901276,0.9610131990539408,0.2066071564812697
1499368327750,-0.19916075379568188,0.975173571374075,0.20025940337224402
1499368327783,-0.20404364080262472,0.9712672617685207,0.20807202258335256
1499368327815,-0.1928130006866562,0.9756618600747693,0.2276035706111239
1499368327847,-0.19671931029221046,0.9805447470817121,0.2251621271076525
1499368327879,-0.20404364080262472,0.9629663538567179,0.2339513237201496
1499368327911,-0.20404364080262472,0.9737087052719922,0.22369726100556964
1499368327943,-0.20062561989776473,0.9771267261768521,0.22613870450904106
1499368327975,-0.19476615548943332,0.9844510566872664,0.2276035706111239
1499368328007,-0.2016021972991533,0.9907988097962921,0.22076752880140393
1499368328039,-0.204531929503319,1.0064240482185092,0.18316929884794408
1499368328071,-0.17718776226443866,0.9571068894483865,0.18463416495002694
1499368328103,-0.18597695887693577,0.9365987640192266,0.20856031128404684
1499368328135,-0.18841840238040763,0.9444113832303351,0.23199816891737246
1499368328167,-0.1893949797817962,0.9746852826733807,0.22272068360418107
1499368328199,-0.20941481651026184,0.988845654993515,0.21930266269932108
1499368328231,-0.20550850690470757,1.0122835126268406,0.2276035706111239
1499368328263,-0.2103913939116504,0.9947051194018464,0.2188143739986268
1499368328295,-0.2016021972991533,0.9834744792858778,0.207095445181964
1499368328327,-0.19085984588387905,0.9619897764553293,0.21637293049515538
1499368328359,-0.19134813458457334,0.9532005798428322,0.22125581750209822
1499368328391,-0.1928130006866562,0.9668726634622722,0.19098191805905262
1499368328423,-0.1957427328908219,0.9707789730678265,0.16510261692225559
1499368328458,-0.1957427328908219,0.9722438391699093,0.19293507286182976
1499368328490,-0.18890669108110192,0.9878690775921264,0.20416571297779829
1499368328522,-0.2016021972991533,0.9815213244831007,0.21051346608682397
1499368328554,-0.19720759899290474,0.9878690775921264,0.20318913557640972
1499368328586,-0.2016021972991533,0.9873807888914321,0.21100175478751826
1499368328618,-0.19183642328526762,0.9644312199588008,0.21393148699168396
1499368328650,-0.1981841763942933,0.9644312199588008,0.21783779659723823
1499368328682,-0.20355535210193043,0.9800564583810178,0.20123598077363258
1499368328714,-0.1981841763942933,0.9746852826733807,0.21344319829098968
1499368328746,-0.1981841763942933,0.9766384374761579,0.20465400167849257
1499368328778,-0.19623102159151617,0.9834744792858778,0.2153963530937668
1499368328810,-0.21234454871442754,0.9688258182650493,0.1826810101472498
1499368328842,-0.19964904249637616,0.9702906843671322,0.21930266269932108
1499368328874,-0.19769588769359903,0.9859159227893493,0.2129549095902954
1499368328906,-0.1820706492713815,0.9741969939726864,0.21783779659723823
1499368328938,-0.18841840238040763,0.9781033035782407,0.207095445181964
1499368328970,-0.19769588769359903,0.9761501487754636,0.21930266269932108
1499368329002,-0.201113908598459,0.9629663538567179,0.22369726100556964
1499368329034,-0.19720759899290474,0.9698023956664379,0.1856107423514155
1499368329066,-0.1957427328908219,0.9678492408636608,0.22027924010070965
1499368329098,-0.19671931029221046,0.9815213244831007,0.21783779659723823
1499368329130,-0.201113908598459,0.9722438391699093,0.21637293049515538
1499368329162,-0.20550850690470757,0.9805447470817121,0.20856031128404684
1499368329194,-0.21429770351720467,0.9795681696803236,0.2129549095902954
1499368329226,-0.19623102159151617,0.9698023956664379,0.20318913557640972
1499368329259,-0.204531929503319,0.9727321278706036,0.20807202258335256
1499368329291,-0.2016021972991533,0.9781033035782407,0.19586480506599546
1499368329323,-0.19476615548943332,0.9698023956664379,0.20611886778057542
1499368329355,-0.21429770351720467,0.9898222323949035,0.2100251773861297
1499368329387,-0.19964904249637616,0.9849393453879607,0.20416571297779829
1499368329419,-0.20941481651026184,0.9795681696803236,0.20758373388265827
1499368329451,-0.20599679560540185,0.9693141069657436,0.1914702067597469
1499368329483,-0.19769588769359903,0.9771267261768521,0.19049362935835834
1499368329515,-0.20257877470054186,0.9800564583810178,0.19977111467154973
1499368329547,-0.1981841763942933,0.9781033035782407,0.1797512779430841
1499368329579,-0.20257877470054186,0.9771267261768521,0.19879453727016116
1499368329611,-0.19037155718318477,0.9766384374761579,0.207095445181964
1499368329643,-0.1854886701762415,0.9927519645990692,0.21490806439307253
1499368329675,-0.1928130006866562,0.9698023956664379,0.18170443274586123
1499368329707,-0.18744182497901862,0.9849393453879607,0.18951705195696977
1499368329743,-0.2133211261158161,0.9629663538567179,0.20025940337224402
1499368329775,-0.1923247119859619,0.9746852826733807,0.1978179598687726
1499368329807,-0.21527428091859324,0.9771267261768521,0.19000534065766406
1499368329839,-0.19964904249637616,0.9824979018844893,0.19098191805905262
1499368329871,-0.19427786678873904,0.975173571374075,0.1860990310521098
1499368329903,-0.2103913939116504,0.9883573662928207,0.1914702067597469
1499368329935,-0.1928130006866562,0.982009613183795,0.18365758754863837
1499368329967,-0.18744182497901862,0.9883573662928207,0.1914702067597469
1499368329999,-0.19476615548943332,0.982009613183795,0.17535667963683554
1499368330031,-0.20209048599984758,0.9712672617685207,0.1856107423514155
1499368330063,-0.1923247119859619,0.9756618600747693,0.1914702067597469
1499368330095,-0.18988326848249049,0.9693141069657436,0.17926298924238981
1499368330127,-0.1952544441901276,0.978591592278935,0.19586480506599546
1499368330159,-0.1986724650949876,0.9737087052719922,0.17877470054169553
1499368330191,-0.19378957808804476,0.9771267261768521,0.19684138246738403
1499368330223,-0.2108796826123447,0.9605249103532465,0.17438010223544698
1499368330255,-0.19623102159151617,0.9859159227893493,0.17242694743266984
1499368330287,-0.1893949797817962,0.9766384374761579,0.20318913557640972
1499368330319,-0.19720759899290474,0.9712672617685207,0.2153963530937668
1499368330351,-0.1757228961623558,0.9746852826733807,0.20758373388265827
1499368330383,-0.1732814526588844,0.982009613183795,0.20611886778057542
1499368330415,-0.14837872892347592,0.9829861905851836,0.20514229037918685
1499368330447,-0.1430075532158388,0.9776150148775464,0.19830624856946688
1499368330479,-0.1308003356984817,1.0039826047150378,0.20416571297779829
1499368330511,-0.3803158617532616,1.031815060654612,0.1494773785000385
1499368330543,-0.15716792553597303,1.047440299076829,0.19244678416113548
1499368330576,-0.12591744869153887,0.9839627679865721,0.16852063782711557
1499368330608,-0.2318760967421989,0.9351338979171437,0.18219272144655552
1499368330640,-0.20355535210193043,0.9849393453879607,0.167544060425727
1499368330672,-0.204531929503319,0.9907988097962921,0.20318913557640972
1499368330704,-0.21576256961928753,0.9815213244831007,0.20563057907988114
1499368330736,-0.2108796826123447,0.9556420233463037,0.18414587624933265
1499368330768,-0.237247272449836,0.9561303120469979,0.18316929884794408
1499368330800,-0.24798962386511025,1.0171663996337834,0.15387197680628706
1499368330832,-0.23382925154497602,0.9400167849240866,0.1978179598687726
1499368330864,-0.22357518883039607,0.9824979018844893,0.16998550392919842
1499368330896,-0.21771572442206466,0.9898222323949035,0.16705577172503272
1499368330928,-0.19720759899290474,0.9654077973601893,0.16900892652780986
1499368330960,-0.22308690012970178,1.0030060273136492,0.17535667963683554
1499368330992,-0.19720759899290474,0.9517357137407494,0.18414587624933265
1499368331027,-0.2103913939116504,0.9932402532997635,0.1494773785000385
1499368331059,-0.22406347753109035,0.9556420233463037,0.16852063782711557
1499368331091,-0.23578240634775316,0.9732204165712979,0.20025940337224402
1499368331123,-0.21576256961928753,1.0064240482185092,0.18414587624933265
1499368331155,-0.23871213855191886,0.9541771572442208,0.1763332570382241
1499368331187,-0.22015716792553608,0.9634546425574122,0.19977111467154973
1499368331219,-0.1986724650949876,0.9712672617685207,0.20563057907988114
1499368331251,-0.1952544441901276,1.0034943160143435,0.1943999389639126
1499368331283,-0.1981841763942933,0.9878690775921264,0.19000534065766406
1499368331315,-0.22308690012970178,1.0210727092393377,0.19000534065766406
1499368331347,-0.2704509040970473,0.9712672617685207,0.1494773785000385
1499368331379,-0.2465247577630274,0.9219501029983981,0.05816739147020655
1499368331411,-0.21820401312275894,1.0108186465247577,0.059632257572289404
1499368331443,-0.23871213855191886,0.9815213244831007,0.07086289768825793
1499368331475,-0.24798962386511025,0.9947051194018464,0.09088273441672357
1499368331507,-0.22113374532692465,0.9864042114900435,0.1646143282215613
1499368331539,-0.18841840238040763,0.949294270237278,0.1499656672007328
1499368331571,-0.20990310521095612,0.9922636758983749,0.1406881818875414
1499368331604,-0.22308690012970178,1.004470893415732,0.14264133669031853
1499368331636,-0.1732814526588844,0.9346456092164495,0.17145037003128127
1499368331668,-0.21136797131303897,0.9927519645990692,0.170962081330587
1499368331700,-0.20355535210193043,0.9727321278706036,0.1553368429083699
1499368331732,-0.1791409170672158,0.9707789730678265,0.1890287632562755
1499368331764,-0.1986724650949876,0.9839627679865721,0.1377584496833757
1499368331796,-0.1727931639581901,0.9951934081025406,0.16998550392919842
1499368331828,-0.1757228961623558,0.9859159227893493,0.15045395590142707
1499368331860,-0.19623102159151617,0.952712291142138,0.17242694743266984
1499368331892,-0.23968871595330743,0.9727321278706036,0.1680323491264213
1499368331924,-0.1986724650949876,0.9898222323949035,0.15387197680628706
1499368331956,-0.20892652780956755,0.9722438391699093,0.1890287632562755
1499368331988,-0.19476615548943332,0.9942168307011521,0.18365758754863837
1499368332020,-0.18597695887693577,0.9741969939726864,0.21197833218890683
1499368332052,-0.17425803006027296,0.9688258182650493,0.19879453727016116
1499368332084,-0.17962920576791008,0.9912870984969864,0.1856107423514155
1499368332116,-0.19378957808804476,0.9615014877546351,0.17145037003128127
1499368332148,-0.19427786678873904,0.9912870984969864,0.20514229037918685
1499368332180,-0.18841840238040763,1.0015411612115663,0.18512245365072122
1499368332212,-0.18890669108110192,0.9727321278706036,0.2188143739986268
1499368332245,-0.20404364080262472,0.9722438391699093,0.23785763332570387
1499368332277,-0.1893949797817962,0.9781033035782407,0.22906843671320676
1499368332311,-0.20013733119707044,0.9702906843671322,0.2310215915159839
1499368332343,-0.20209048599984758,0.9829861905851836,0.23785763332570387
1499368332375,-0.20209048599984758,0.9776150148775464,0.2310215915159839
1499368332407,-0.2167391470206761,0.9688258182650493,0.20172426947432687
1499368332439,-0.20990310521095612,0.964919508659495,0.2188143739986268
1499368332471,-0.26263828488593877,0.964919508659495,0.23932249942778672
1499368332503,-0.18353551537346435,0.9741969939726864,0.18316929884794408
1499368332535,-0.1791409170672158,0.9693141069657436,0.203677424277104
1499368332568,-0.23041123064011604,0.9702906843671322,0.21783779659723823
1499368332600,-0.2225986114290075,0.9663843747615779,0.22223239490348679
1499368332632,-0.21136797131303897,0.9595483329518579,0.2305333028152896
1499368332664,-0.2133211261158161,0.9556420233463037,0.22125581750209822
1499368332696,-0.20550850690470757,0.9571068894483865,0.23785763332570387
1499368332728,-0.22308690012970178,0.9810330357824064,0.23248645761806674
1499368332760,-0.21429770351720467,0.9922636758983749,0.2339513237201496
1499368332792,-0.20990310521095612,0.9619897764553293,0.21441977569237824
1499368332824,-0.20794995040817899,0.9722438391699093,0.22223239490348679
1499368332856,-0.2133211261158161,0.9595483329518579,0.21930266269932108
1499368332888,-0.20502021820401328,0.9629663538567179,0.19537651636530118
1499368332920,-0.21527428091859324,0.9634546425574122,0.1914702067597469
1499368332952,-0.20892652780956755,0.9707789730678265,0.1914702067597469
1499368332984,-0.20209048599984758,0.9712672617685207,0.18658731975280407
1499368333016,-0.20941481651026184,0.9800564583810178,0.18121614404516695
1499368333048,-0.20648508430609613,0.9849393453879607,0.20123598077363258
1499368333080,-0.21136797131303897,0.988845654993515,0.19928282597085545
1499368333112,-0.20599679560540185,0.9644312199588008,0.18951705195696977
1499368333144,-0.2103913939116504,0.975173571374075,0.21051346608682397
1499368333177,-0.1986724650949876,0.9702906843671322,0.23297474631876103
1499368333209,-0.2074616617074847,0.9575951781490808,0.19049362935835834
1499368333241,-0.20306706340123615,0.9761501487754636,0.18023956664377838
1499368333273,-0.201113908598459,0.9781033035782407,0.18023956664377838
1499368333305,-0.1957427328908219,0.9741969939726864,0.19098191805905262
1499368333337,-0.20355535210193043,0.9746852826733807,0.19098191805905262
1499368333369,-0.21722743572137038,0.9654077973601893,0.17193865873197556
1499368333401,-0.204531929503319,0.9776150148775464,0.1914702067597469
1499368333433,-0.20794995040817899,0.9839627679865721,0.18170443274586123
1499368333465,-0.2133211261158161,0.9654077973601893,0.16070801861600703
1499368333497,-0.22504005493247892,0.9688258182650493,0.16900892652780986
1499368333529,-0.21527428091859324,0.9693141069657436,0.17877470054169553
1499368333561,-0.2191805905241475,0.9580834668497751,0.16314946211947845
1499368333595,-0.20892652780956755,0.9873807888914321,0.17242694743266984
1499368333627,-0.2103913939116504,0.9810330357824064,0.1704737926298927
1499368333659,-0.2074616617074847,0.9800564583810178,0.17438010223544698
1499368333691,-0.21185626001373326,0.9673609521629665,0.1797512779430841
1499368333724,-0.2167391470206761,0.9615014877546351,0.18365758754863837
1499368333756,-0.21234454871442754,0.9800564583810178,0.20807202258335256
1499368333788,-0.21234454871442754,0.9766384374761579,0.17877470054169553
1499368333820,-0.20990310521095612,0.9678492408636608,0.1826810101472498
1499368333852,-0.21234454871442754,0.9810330357824064,0.1919584954604412
1499368333884,-0.2108796826123447,0.9766384374761579,0.19000534065766406
1499368333916,-0.20013733119707044,0.9771267261768521,0.1914702067597469
1499368333948,-0.21576256961928753,0.9693141069657436,0.1768215457389184
1499368333980,-0.20990310521095612,0.9673609521629665,0.17877470054169553
1499368334012,-0.20306706340123615,0.9834744792858778,0.1914702067597469
1499368334044,-0.2133211261158161,0.9590600442511636,0.1734035248340584
1499368334076,-0.21234454871442754,0.9878690775921264,0.17535667963683554
1499368334108,-0.2138094148165104,0.9654077973601893,0.16266117341878417
1499368334140,-0.20892652780956755,0.9624780651560236,0.17730983443961268
1499368334172,-0.21234454871442754,0.9800564583810178,0.1856107423514155
1499368334204,-0.2162508583199818,0.9712672617685207,0.19586480506599546
1499368334237,-0.20990310521095612,0.982009613183795,0.1826810101472498
1499368334269,-0.21234454871442754,0.9766384374761579,0.1973296711680783
1499368334301,-0.2162508583199818,0.971755550469215,0.1616845960173956
1499368334333,-0.2138094148165104,0.9536888685435265,0.16119630731670131
1499368334365,-0.20892652780956755,0.9688258182650493,0.1680323491264213
1499368334397,-0.2103913939116504,0.9829861905851836,0.1763332570382241
1499368334429,-0.20843823910887327,0.9732204165712979,0.17828641184100125
1499368334461,-0.22211032272831321,0.9810330357824064,0.18512245365072122
1499368334493,-0.2133211261158161,0.978591592278935,0.17926298924238981
1499368334525,-0.20062561989776473,0.9707789730678265,0.2095368886854354
1499368334557,-0.21576256961928753,0.9629663538567179,0.17828641184100125
1499368334589,-0.21429770351720467,0.9746852826733807,0.17242694743266984
1499368334621,-0.21429770351720467,0.9829861905851836,0.18170443274586123
1499368334653,-0.20794995040817899,0.9688258182650493,0.22369726100556964
1499368334685,-0.19183642328526762,0.9829861905851836,0.16510261692225559
1499368334717,-0.2138094148165104,0.9795681696803236,0.203677424277104
1499368334749,-0.21527428091859324,0.9844510566872664,0.17242694743266984
1499368334782,-0.2167391470206761,0.9737087052719922,0.19000534065766406
1499368334814,-0.21283283741512182,0.9698023956664379,0.17779812314030696
1499368334846,-0.20697337300679042,0.9693141069657436,0.16949721522850414
1499368334879,-0.21429770351720467,0.9658960860608836,0.19879453727016116
1499368334911,-0.2103913939116504,0.9605249103532465,0.18707560845349835
1499368334943,-0.19720759899290474,0.9712672617685207,0.207095445181964
1499368334975,-0.20306706340123615,0.9771267261768521,0.20758373388265827
1499368335007,-0.20648508430609613,0.9839627679865721,0.18414587624933265
1499368335039,-0.20306706340123615,0.9737087052719922,0.17779812314030696
1499368335071,-0.204531929503319,0.9756618600747693,0.1768215457389184
1499368335103,-0.21820401312275894,0.9805447470817121,0.14508278019378995
1499368335135,-0.21869230182345323,0.9722438391699093,0.1528953994048985
1499368335167,-0.20794995040817899,0.9771267261768521,0.16314946211947845
1499368335199,-0.22504005493247892,0.9654077973601893,0.18707560845349835
1499368335232,-0.2284580758373389,0.988845654993515,0.17291523613336413
1499368335264,-0.23236438544289317,0.9761501487754636,0.17438010223544698
1499368335296,-0.21869230182345323,0.9859159227893493,0.1734035248340584
1499368335328,-0.22211032272831321,0.9698023956664379,0.16852063782711557
1499368335360,-0.21478599221789896,0.9834744792858778,0.15143053330281564
1499368335392,-0.2103913939116504,0.9698023956664379,0.15728999771114704
1499368335424,-0.21820401312275894,0.9722438391699093,0.15436026550698134
1499368335456,-0.2284580758373389,0.9746852826733807,0.16363775082017273
1499368335488,-0.20599679560540185,0.9737087052719922,0.18121614404516695
1499368335520,-0.22504005493247892,0.9688258182650493,0.1797512779430841
1499368335552,-0.20990310521095612,0.975173571374075,0.1558251316090642
1499368335584,-0.22601663233386748,0.9883573662928207,0.1890287632562755
1499368335616,-0.20941481651026184,0.9702906843671322,0.1763332570382241
1499368335648,-0.19378957808804476,0.9810330357824064,0.1734035248340584
1499368335680,-0.20941481651026184,0.9702906843671322,0.19391165026321833
1499368335713,-0.19916075379568188,0.9600366216525522,0.18658731975280407
1499368335745,-0.1986724650949876,0.9917753871976807,0.15924315251392418
1499368335777,-0.20355535210193043,0.9746852826733807,0.16314946211947845
1499368335809,-0.19916075379568188,0.9698023956664379,0.1860990310521098
1499368335841,-0.201113908598459,0.9746852826733807,0.19830624856946688
1499368335873,-0.20062561989776473,0.9766384374761579,0.17438010223544698
1499368335905,-0.19769588769359903,0.9927519645990692,0.18121614404516695
1499368335937,-0.2103913939116504,1.0186312657358663,0.2007476920729383
1499368335969,-0.22113374532692465,1.057694361791409,0.25348287174792095
1499368336001,-0.25433737697413594,1.030350194552529,0.2905928130006865
1499368336033,-0.2499427786678874,0.9771267261768521,0.27496757457846943
1499368336065,-0.26654459449149304,0.932204165712978,0.25592431525139236
1499368336097,-0.22015716792553608,0.9727321278706036,0.1860990310521098
1499368336129,-0.1703517204547187,1.0083772030212863,0.18316929884794408
1499368336164,-0.15863279163805588,0.9463645380331123,0.08307011520561502
1499368336196,-0.16351567864499872,0.919996948195621,6.103608758678547E-5
1499368336228,-0.11468680857557034,0.8755626764324411,0.015197985809109582
1499368336260,-0.10003814755474183,0.9214618142977038,0.07916380560006075
1499368336292,-0.15033188372625306,0.935622186617838,0.1138323033493549
1499368336324,-0.18060578316929865,1.0137483787289234,0.167544060425727
1499368336357,-0.20257877470054186,1.0752727550164032,0.21393148699168396
1499368336389,-0.19183642328526762,1.0357213702601662,0.279362172884718
1499368336421,-0.22406347753109035,1.037186236362249,0.3037766079194322
1499368336453,-0.2255283436331732,0.9981231403067063,0.269108110170138
1499368336485,-0.22748149843595034,0.9341573205157552,0.3594415197985805
1499368336517,-0.20843823910887327,0.9087663080796524,0.35260547798886055
1499368336549,-0.22357518883039607,0.8457770656900889,0.39118028534370985
1499368336581,-0.16546883344777585,0.8101319905394062,0.49079118028534374
1499368336613,-0.20892652780956755,0.861402304112306,0.5034866865033951
1499368336645,-0.18304722667277007,0.8179446097505148,0.4863965819790952
1499368336677,-0.16302738994430443,0.8516365300984203,0.5298542763408864
1499368336709,-0.2162508583199818,0.9170672159914552,0.5498741130693521
1499368336741,-0.2289463645380332,0.8643320363164717,0.5718471046005948
1499368336773,-0.2225986114290075,0.8941176470588239,0.641184100099184
1499368336806,-0.20306706340123615,0.8301518272678718,0.6055390249485004
1499368336838,-0.17816433966582723,0.8257572289616233,0.603097581445029
1499368336870,-0.15960936903944445,0.861402304112306,0.5982146944380862
1499368336902,-0.14105439841306167,0.7842526894026092,0.5493858243686578
1499368336934,-0.164003967345693,0.8379644464789804,0.5103227283131151
1499368336966,-0.16546883344777585,0.8555428397039746,0.5528038452735178
1499368336998,-0.13958953231097881,0.851148241397726,0.523994811932555
1499368337030,-0.16546883344777585,0.857984283207446,0.5103227283131151
1499368337062,-0.17425803006027296,0.8858167391470211,0.5528038452735178
1499368337094,-0.1791409170672158,0.8726329442282745,0.5132524605172808
1499368337126,-0.1703517204547187,0.835523002975509,0.556710154879072
1499368337158,-0.16839856565194156,0.857984283207446,0.5474326695658807
1499368337190,-0.18744182497901862,0.8570077058060575,0.5879606317235062
1499368337222,-0.19183642328526762,0.8438239108873118,0.5762417029068434
1499368337254,-0.19916075379568188,0.8369878690775918,0.5650110627908749
1499368337287,-0.19671931029221046,0.8487067978942546,0.5825894560158691
1499368337319,-0.17230487525749583,0.8272220950637061,0.6153047989623861
1499368337351,-0.1952544441901276,0.8301518272678718,0.596261539635309
1499368337383,-0.18988326848249049,0.8448004882887004,0.5918669413290605
1499368337415,-0.18695353627832434,0.8448004882887004,0.6138399328603033
1499368337448,-0.1644922560463873,0.8467536430914775,0.6289768825818269
1499368337480,-0.16351567864499872,0.8169680323491262,0.6172579537651632
1499368337512,-0.17132829785610726,0.8091554131380176,0.6358129243915469
1499368337544,-0.16009765774013873,0.8076905470359348,0.6338597695887698
1499368337576,-0.1644922560463873,0.8067139696345462,0.6309300373846041
1499368337608,-0.1644922560463873,0.8189211871519033,0.6460669871061269
1499368337640,-0.16009765774013873,0.8281986724650947,0.6172579537651632
1499368337673,-0.17865262836652152,0.8335698481727318,0.6284885938811327
1499368337705,-0.1727931639581901,0.815014877546349,0.6494850080109869
1499368337737,-0.1669336995498587,0.8213626306553747,0.6201876859693289
1499368337769,-0.16937514305333012,0.8198977645532919,0.6353246356908526
1499368337801,-0.167421988250553,0.8081788357366291,0.6060273136491947
1499368337833,-0.1644922560463873,0.8301518272678718,0.6153047989623861
1499368337865,-0.164003967345693,0.7984130617227434,0.606515602349889
1499368337897,-0.1669336995498587,0.8238040741588462,0.6143282215609975
1499368337929,-0.1698634317540244,0.8350347142748147,0.6211642633707175
1499368337961,-0.17230487525749583,0.8096437018387119,0.5904020752269776
1499368337993,-0.17376974135957868,0.8242923628595404,0.5972381170366976
1499368338025,-0.16937514305333012,0.8198977645532919,0.6006561379415576
1499368338057,-0.17181658655680154,0.8194094758525976,0.5967498283360033
1499368338090,-0.1732814526588844,0.8340581368734261,0.6060273136491947
1499368338122,-0.17669947356374438,0.8384527351796747,0.6026092927443347
1499368338154,-0.1552147707331959,0.8384527351796747,0.606515602349889
1499368338186,-0.18597695887693577,0.8003662165255205,0.6079804684519718
1499368338218,-0.15912108033875016,0.8164797436484319,0.5845426108186462
1499368338250,-0.18060578316929865,0.8457770656900889,0.6201876859693289
1499368338282,-0.164003967345693,0.8125734340428776,0.6265354390783555
1499368338314,-0.20648508430609613,0.8062256809338519,0.5879606317235062
1499368338346,-0.14789044022278164,0.8452887769893946,0.6333714808880755
1499368338378,-0.18402380407415864,0.7886472877088577,0.6538796063172354
1499368338410,-0.1610742351415273,0.782299534599832,0.6851300831616696
1499368338442,-0.18841840238040763,0.8477302204928661,0.670481422140841
1499368338474,-0.18841840238040763,0.7705806057831692,0.6812237735561153
1499368338507,-0.18109407186999293,0.8067139696345462,0.7031967650873581
1499368338539,-0.21869230182345323,0.8550545510032803,0.6695048447394525
1499368338571,-0.1981841763942933,0.8433356221866175,0.6382543678950183
1499368338603,-0.1957427328908219,0.8574959945067517,0.625558861676967
1499368338635,-0.20404364080262472,0.8599374380102232,0.5943083848325319
1499368338667,-0.03460746166170736,1.0459754329747462,0.47907225146868093
1499368338699,-0.20404364080262472,0.7554436560616464,0.5449912260624092
1499368338733,-0.20404364080262472,0.9971465629053178,0.4043640802624555
1499368338765,-0.23236438544289317,0.8360112916762032,0.44782177462424677
1499368338797,-0.15912108033875016,0.8374761577782861,0.47809567406729236
1499368338829,-0.16205081254291587,0.8740978103303574,0.42682536049439257
1499368338861,-0.20550850690470757,0.8985122453650725,0.4527046616311896
1499368338893,-0.201113908598459,0.8819104295414668,0.47516594186312666
1499368338925,-0.22162203402761893,0.928786144808118,0.47614251926451523
1499368338957,-0.20257877470054186,0.8540779736018917,0.5034866865033951
1499368338990,-0.204531929503319,0.8760509651331354,0.501533531700618
1499368339022,-0.23285267414358746,0.9073014419775696,0.508369573510338
1499368339054,-0.20892652780956755,0.8975356679636839,0.5279011215381093
1499368339086,-0.22601663233386748,0.8833752956435497,0.523994811932555
1499368339118,-0.22455176623178463,0.8765392538338297,0.5493858243686578
1499368339150,-0.2162508583199818,0.8408941786831461,0.5366903181506064
1499368339182,-0.21527428091859324,0.8618905928130003,0.556710154879072
1499368339214,-0.20550850690470757,0.8863050278477154,0.5264362554360265
1499368339246,-0.23529411764705888,0.8277103837644004,0.5728236820019834
1499368339278,-0.19720759899290474,0.8457770656900889,0.566964217593652
1499368339310,-0.21283283741512182,0.8487067978942546,0.5816128786144805
1499368339342,-0.20355535210193043,0.815014877546349,0.5869840543221176
1499368339374,-0.20306706340123615,0.8565194171053632,0.5611047531853206
1499368339407,-0.2133211261158161,0.8404058899824518,0.5864957656214234
1499368339439,-0.21527428091859324,0.8208743419546805,0.5698939497978177
1499368339471,-0.18744182497901862,0.8169680323491262,0.5825894560158691
1499368339503,-0.19769588769359903,0.8443121995880061,0.5972381170366976
1499368339535,-0.18353551537346435,0.8501716639963375,0.6021210040436404
1499368339567,-0.19623102159151617,0.8174563210498205,0.6084687571526661
1499368339599,-0.17523460746166153,0.8574959945067517,0.6060273136491947
1499368339631,-0.17962920576791008,0.8203860532539862,0.5884489204242005
1499368339663,-0.17816433966582723,0.8125734340428776,0.6026092927443347
1499368339695,-0.18060578316929865,0.8408941786831461,0.5938200961318376
1499368339727,-0.1820706492713815,0.8101319905394062,0.5728236820019834
1499368339759,-0.16351567864499872,0.8101319905394062,0.5943083848325319
1499368339791,-0.19720759899290474,0.8277103837644004,0.5611047531853206
1499368339824,-0.1644922560463873,0.8115968566414891,0.6021210040436404
1499368339856,-0.18451209277485292,0.8242923628595404,0.5869840543221176
1499368339888,-0.1981841763942933,0.8228274967574576,0.5874723430228119
1499368339920,-0.18353551537346435,0.8394293125810632,0.6001678492408633
1499368339952,-0.18793011367971335,0.8174563210498205,0.6192111085679404
1499368339984,-0.18353551537346435,0.828686961165789,0.606515602349889
1499368340017,-0.18744182497901862,0.8262455176623176,0.5987029831387805
1499368340049,-0.18841840238040763,0.8145265888456548,0.6280003051804384
1499368340081,-0.18353551537346435,0.8208743419546805,0.6138399328603033
1499368340114,-0.18158236057068722,0.8238040741588462,0.625558861676967
1499368340146,-0.18695353627832434,0.8052491035324634,0.6348363469901583
1499368340178,-0.18890669108110192,0.7974364843213548,0.6240939955748832
1499368340210,-0.18646524757763006,0.8140383001449605,0.6294651712825212
1499368340242,-0.18060578316929865,0.8067139696345462,0.6382543678950183
1499368340274,-0.18841840238040763,0.8120851453421833,0.6426489662012669
1499368340306,-0.18060578316929865,0.8364995803768975,0.6719462882429239
1499368340338,-0.18646524757763006,0.7974364843213548,0.6162813763637747
1499368340370,-0.18988326848249049,0.8101319905394062,0.6216525520714118
1499368340402,-0.18451209277485292,0.8208743419546805,0.6387426565957126
1499368340434,-0.1923247119859619,0.8145265888456548,0.6250705729762727
1499368340466,-0.18597695887693577,0.8101319905394062,0.6314183260852984
1499368340499,-0.1952544441901276,0.8008545052262148,0.6206759746700232
1499368340531,-0.19037155718318477,0.8208743419546805,0.6363012130922412
1499368340563,-0.19427786678873904,0.8111085679407948,0.6275120164797441
1499368340595,-0.19037155718318477,0.8174563210498205,0.6382543678950183
1499368340627,-0.1928130006866562,0.8086671244373234,0.6240939955748832
1499368340659,-0.18255893797207579,0.8032959487296862,0.6358129243915469
1499368340691,-0.18255893797207579,0.8194094758525976,0.6406958113984897
1499368340723,-0.19183642328526762,0.7783932249942778,0.6431372549019612
1499368340755,-0.18890669108110192,0.8135500114442662,0.6201876859693289
1499368340787,-0.18451209277485292,0.8032959487296862,0.644602121004044
1499368340819,-0.19037155718318477,0.8159914549477376,0.6509498741130697
1499368340851,-0.19085984588387905,0.8262455176623176,0.6724345769436182
1499368340884,-0.19330128938735047,0.7871824216067749,0.6284885938811327
1499368340916,-0.18793011367971335,0.802807660028992,0.6416723887998783
1499368340948,-0.1952544441901276,0.8101319905394062,0.6367895017929355
1499368340980,-0.18597695887693577,0.8057373922331577,0.6309300373846041
1499368341012,-0.19916075379568188,0.8076905470359348,0.648020141908904
1499368341044,-0.18402380407415864,0.8086671244373234,0.6314183260852984
1499368341076,-0.19623102159151617,0.8081788357366291,0.661692225528344
1499368341108,-0.20502021820401328,0.8247806515602347,0.6333714808880755
1499368341140,-0.1820706492713815,0.7974364843213548,0.6299534599832155
1499368341172,-0.18841840238040763,0.8023193713282977,0.6304417486839098
1499368341204,-0.19476615548943332,0.8208743419546805,0.6363012130922412
1499368341236,-0.1957427328908219,0.8003662165255205,0.6436255436026554
1499368341268,-0.19769588769359903,0.8115968566414891,0.6284885938811327
1499368341302,-0.18597695887693577,0.802807660028992,0.6382543678950183
1499368341334,-0.1791409170672158,0.802807660028992,0.6304417486839098
1499368341366,-0.19183642328526762,0.8052491035324634,0.6655985351338982
1499368341398,-0.18158236057068722,0.8037842374303805,0.609933623254749
1499368341430,-0.20502021820401328,0.8042725261310748,0.6426489662012669
1499368341462,-0.19476615548943332,0.8086671244373234,0.6284885938811327
1499368341494,-0.18402380407415864,0.8086671244373234,0.637766079194324
1499368341526,-0.18597695887693577,0.8086671244373234,0.6113984893568318
1499368341558,-0.18304722667277007,0.8115968566414891,0.6304417486839098
1499368341591,-0.1893949797817962,0.8086671244373234,0.6363012130922412
1499368341623,-0.19623102159151617,0.8101319905394062,0.6240939955748832
1499368341655,-0.1986724650949876,0.8125734340428776,0.6509498741130697
1499368341687,-0.201113908598459,0.8169680323491262,0.6143282215609975
1499368341719,-0.18841840238040763,0.8130617227435719,0.625558861676967
1499368341751,-0.18744182497901862,0.8101319905394062,0.6387426565957126
1499368341783,-0.18451209277485292,0.8213626306553747,0.625558861676967
1499368341815,-0.1854886701762415,0.8086671244373234,0.6353246356908526
1499368341847,-0.18988326848249049,0.8155031662470433,0.6216525520714118
1499368341879,-0.1893949797817962,0.815014877546349,0.6138399328603033
1499368341911,-0.18060578316929865,0.8257572289616233,0.6299534599832155
1499368341943,-0.17669947356374438,0.8228274967574576,0.6382543678950183
1499368341976,-0.1727931639581901,0.8169680323491262,0.6250705729762727
1499368342008,-0.18158236057068722,0.8325932707713433,0.6450904097047383
1499368342040,-0.1850003814755472,0.815014877546349,0.6162813763637747
1499368342072,-0.18695353627832434,0.8301518272678718,0.6157930876630804
1499368342104,-0.1850003814755472,0.8101319905394062,0.6240939955748832
1499368342136,-0.18255893797207579,0.8267338063630119,0.616769665064469
1499368342168,-0.17962920576791008,0.825268940260929,0.6055390249485004
1499368342200,-0.18402380407415864,0.8076905470359348,0.6182345311665518
1499368342232,-0.1923247119859619,0.8325932707713433,0.6109102006561375
1499368342264,-0.1757228961623558,0.8242923628595404,0.6206759746700232
1499368342296,-0.1732814526588844,0.818432898451209,0.6094453345540547
1499368342328,-0.18597695887693577,0.8277103837644004,0.6079804684519718
1499368342361,-0.17425803006027296,0.8262455176623176,0.6289768825818269
1499368342393,-0.17523460746166153,0.8228274967574576,0.6157930876630804
1499368342425,-0.17523460746166153,0.818432898451209,0.6035858701457233
1499368342457,-0.18304722667277007,0.8262455176623176,0.6045624475471119
1499368342489,-0.18109407186999293,0.8330815594720375,0.6011444266422519
1499368342521,-0.17767605096513295,0.8399176012817575,0.6226291294728004
1499368342553,-0.1791409170672158,0.8145265888456548,0.613351644159609
1499368342586,-0.1820706492713815,0.828686961165789,0.603097581445029
1499368342618,-0.1762111848630501,0.8233157854581519,0.6060273136491947
1499368342650,-0.1732814526588844,0.8330815594720375,0.6196993972686347
1499368342682,-0.17718776226443866,0.8281986724650947,0.6084687571526661
1499368342715,-0.17865262836652152,0.838941023880369,0.6128633554589147
1499368342747,-0.1791409170672158,0.8189211871519033,0.6089570458533604
1499368342779,-0.17084000915541298,0.8262455176623176,0.577218280308232
1499368342811,-0.1762111848630501,0.8198977645532919,0.5952849622339205
1499368342843,-0.16791027695124727,0.828686961165789,0.6026092927443347
1499368342875,-0.18988326848249049,0.8242923628595404,0.5972381170366976
1499368342907,-0.17376974135957868,0.8242923628595404,0.6148165102616918
1499368342939,-0.16888685435263584,0.8247806515602347,0.6138399328603033
1499368342971,-0.1698634317540244,0.8189211871519033,0.6084687571526661
1499368343003,-0.167421988250553,0.8130617227435719,0.6094453345540547
1499368343035,-0.17376974135957868,0.8164797436484319,0.6006561379415576
1499368343067,-0.1703517204547187,0.832104982070649,0.5991912718394747
1499368343100,-0.16888685435263584,0.8306401159685661,0.613351644159609
1499368343132,-0.18060578316929865,0.8213626306553747,0.5947966735332262
1499368343164,-0.18597695887693577,0.8189211871519033,0.6226291294728004
1499368343196,-0.17084000915541298,0.818432898451209,0.6143282215609975
1499368343228,-0.18060578316929865,0.8281986724650947,0.616769665064469
1499368343260,-0.16937514305333012,0.8277103837644004,0.5987029831387805
1499368343292,-0.16888685435263584,0.8155031662470433,0.6040741588464176
1499368343324,-0.18158236057068722,0.821850919356069,0.613351644159609
1499368343356,-0.17474631876096725,0.8145265888456548,0.5982146944380862
1499368343388,-0.18109407186999293,0.8277103837644004,0.6162813763637747
1499368343420,-0.17962920576791008,0.8203860532539862,0.6216525520714118
1499368343453,-0.17376974135957868,0.8169680323491262,0.6074921797512776
1499368343485,-0.18158236057068722,0.8130617227435719,0.6284885938811327
1499368343517,-0.17084000915541298,0.8233157854581519,0.6162813763637747
1499368343549,-0.18158236057068722,0.8296635385671776,0.6138399328603033
1499368343581,-0.17669947356374438,0.8228274967574576,0.613351644159609
1499368343613,-0.1727931639581901,0.8155031662470433,0.6060273136491947
1499368343645,-0.18646524757763006,0.8189211871519033,0.6196993972686347
1499368343677,-0.1732814526588844,0.8257572289616233,0.6333714808880755
1499368343709,-0.16644541084916442,0.8208743419546805,0.6123750667582204
1499368343741,-0.18060578316929865,0.8159914549477376,0.6372777904936298
1499368343773,-0.17669947356374438,0.8189211871519033,0.6113984893568318
1499368343805,-0.18353551537346435,0.8081788357366291,0.6226291294728004
1499368343838,-0.1727931639581901,0.8189211871519033,0.6201876859693289
1499368343870,-0.1893949797817962,0.8179446097505148,0.6089570458533604
1499368343902,-0.1757228961623558,0.8130617227435719,0.6153047989623861
1499368343934,-0.1791409170672158,0.8091554131380176,0.6206759746700232
1499368343966,-0.17376974135957868,0.8155031662470433,0.6309300373846041
1499368343998,-0.18695353627832434,0.8135500114442662,0.6104219119554433
1499368344030,-0.1850003814755472,0.8120851453421833,0.6275120164797441
1499368344062,-0.1762111848630501,0.8198977645532919,0.6309300373846041
1499368344094,-0.18744182497901862,0.815014877546349,0.6236057068741889
1499368344127,-0.1791409170672158,0.8106202792401005,0.6182345311665518
1499368344159,-0.16888685435263584,0.8106202792401005,0.6314183260852984
1499368344191,-0.1820706492713815,0.7998779278248263,0.6060273136491947
1499368344223,-0.17084000915541298,0.8203860532539862,0.6245822842755775
1499368344255,-0.18255893797207579,0.8189211871519033,0.6304417486839098
1499368344287,-0.18890669108110192,0.7901121538109406,0.6148165102616918
1499368344319,-0.17669947356374438,0.821850919356069,0.6338597695887698
1499368344351,-0.18890669108110192,0.7979247730220491,0.616769665064469
1499368344383,-0.17669947356374438,0.818432898451209,0.6231174181734946
1499368344415,-0.17962920576791008,0.8125734340428776,0.6353246356908526
1499368344447,-0.18353551537346435,0.8203860532539862,0.6221408407721061
1499368344479,-0.16644541084916442,0.8164797436484319,0.6172579537651632
1499368344512,-0.18109407186999293,0.8047608148317691,0.6226291294728004
1499368344544,-0.19134813458457334,0.8174563210498205,0.6363012130922412
1499368344576,-0.17865262836652152,0.8164797436484319,0.6216525520714118
1499368344608,-0.18841840238040763,0.8037842374303805,0.6153047989623861
1499368344640,-0.19085984588387905,0.8198977645532919,0.6333714808880755
1499368344672,-0.18402380407415864,0.8189211871519033,0.6289768825818269
1499368344704,-0.17669947356374438,0.8047608148317691,0.6392309452964069
1499368344736,-0.18353551537346435,0.8257572289616233,0.6294651712825212
1499368344768,-0.18353551537346435,0.8096437018387119,0.6172579537651632
1499368344800,-0.18353551537346435,0.8076905470359348,0.616769665064469
1499368344832,-0.18402380407415864,0.8101319905394062,0.6343480582894641
1499368344865,-0.18695353627832434,0.8120851453421833,0.6245822842755775
1499368344897,-0.19427786678873904,0.815014877546349,0.6240939955748832
1499368344929,-0.17962920576791008,0.8316166933699547,0.6358129243915469
1499368344961,-0.18744182497901862,0.8052491035324634,0.5991912718394747
1499368344993,-0.18646524757763006,0.8106202792401005,0.6367895017929355
1499368345025,-0.18988326848249049,0.818432898451209,0.6211642633707175
1499368345057,-0.17816433966582723,0.8111085679407948,0.6343480582894641
1499368345089,-0.18890669108110192,0.8135500114442662,0.6294651712825212
1499368345121,-0.18793011367971335,0.802807660028992,0.6089570458533604
1499368345155,-0.17181658655680154,0.8198977645532919,0.641184100099184
1499368345187,-0.18646524757763006,0.815014877546349,0.6348363469901583
1499368345219,-0.20013733119707044,0.8115968566414891,0.6245822842755775
1499368345251,-0.1893949797817962,0.8115968566414891,0.6372777904936298
1499368345283,-0.18451209277485292,0.8130617227435719,0.6250705729762727
1499368345315,-0.1957427328908219,0.8096437018387119,0.6338597695887698
1499368345347,-0.18988326848249049,0.8189211871519033,0.6192111085679404
1499368345380,-0.19183642328526762,0.8032959487296862,0.6270237277790498
1499368345412,-0.19134813458457334,0.8076905470359348,0.6299534599832155
1499368345444,-0.17865262836652152,0.8111085679407948,0.6231174181734946
1499368345476,-0.20355535210193043,0.8091554131380176,0.6211642633707175
1499368345508,-0.18744182497901862,0.8125734340428776,0.6216525520714118
1499368345540,-0.1850003814755472,0.828686961165789,0.6211642633707175
1499368345572,-0.19134813458457334,0.7940184634164948,0.6299534599832155
1499368345604,-0.1850003814755472,0.8076905470359348,0.6338597695887698
1499368345636,-0.17523460746166153,0.8145265888456548,0.6343480582894641
1499368345668,-0.19085984588387905,0.8003662165255205,0.609933623254749
1499368345700,-0.1928130006866562,0.8179446097505148,0.6148165102616918
1499368345733,-0.1981841763942933,0.8111085679407948,0.6240939955748832
1499368345765,-0.18158236057068722,0.8223392080567633,0.6406958113984897
1499368345797,-0.1893949797817962,0.8179446097505148,0.6289768825818269
1499368345829,-0.18353551537346435,0.8115968566414891,0.6314183260852984
1499368345861,-0.18158236057068722,0.8130617227435719,0.6314183260852984
1499368345893,-0.1820706492713815,0.8091554131380176,0.6280003051804384
1499368345925,-0.18451209277485292,0.8194094758525976,0.6304417486839098
1499368345957,-0.18890669108110192,0.8062256809338519,0.6270237277790498
1499368345989,-0.18353551537346435,0.8155031662470433,0.6206759746700232
1499368346021,-0.1850003814755472,0.8111085679407948,0.6201876859693289
1499368346053,-0.18304722667277007,0.8115968566414891,0.6392309452964069
1499368346086,-0.18402380407415864,0.8242923628595404,0.6226291294728004
1499368346118,-0.1732814526588844,0.8179446097505148,0.6192111085679404
1499368346150,-0.18158236057068722,0.8203860532539862,0.6309300373846041
1499368346182,-0.18695353627832434,0.8140383001449605,0.6138399328603033
1499368346214,-0.18304722667277007,0.8233157854581519,0.6206759746700232
1499368346246,-0.18304722667277007,0.8242923628595404,0.6250705729762727
1499368346278,-0.17181658655680154,0.8208743419546805,0.6001678492408633
1499368346310,-0.17816433966582723,0.8115968566414891,0.6113984893568318
1499368346342,-0.1854886701762415,0.8072022583352405,0.592843518730449
1499368346374,-0.18597695887693577,0.8072022583352405,0.6074921797512776
1499368346406,-0.18695353627832434,0.8301518272678718,0.6045624475471119
1499368346439,-0.1854886701762415,0.8242923628595404,0.5918669413290605
1499368346471,-0.18109407186999293,0.8262455176623176,0.609933623254749
1499368346504,-0.18402380407415864,0.8267338063630119,0.6123750667582204
1499368346536,-0.18793011367971335,0.818432898451209,0.6104219119554433
1499368346568,-0.17962920576791008,0.8198977645532919,0.6084687571526661
1499368346600,-0.1893949797817962,0.8194094758525976,0.5938200961318376
1499368346632,-0.17181658655680154,0.8228274967574576,0.6201876859693289
1499368346664,-0.17962920576791008,0.8257572289616233,0.5947966735332262
1499368346696,-0.18695353627832434,0.8164797436484319,0.5982146944380862
1499368346728,-0.18744182497901862,0.8345464255741204,0.5947966735332262
1499368346760,-0.18695353627832434,0.8062256809338519,0.5777065690089263
1499368346792,-0.18353551537346435,0.8291752498664833,0.6084687571526661
1499368346824,-0.18158236057068722,0.8340581368734261,0.6094453345540547
1499368346857,-0.18451209277485292,0.832104982070649,0.5938200961318376
1499368346889,-0.16888685435263584,0.8316166933699547,0.6109102006561375
1499368346921,-0.18353551537346435,0.8174563210498205,0.6070038910505833
1499368346953,-0.17523460746166153,0.8340581368734261,0.6070038910505833
1499368346985,-0.18304722667277007,0.8296635385671776,0.5947966735332262
1499368347017,-0.18011749446860437,0.8316166933699547,0.6016327153429462
1499368347049,-0.1762111848630501,0.8291752498664833,0.6045624475471119
1499368347081,-0.18744182497901862,0.8277103837644004,0.6001678492408633
1499368347113,-0.17523460746166153,0.8208743419546805,0.6089570458533604
1499368347145,-0.18646524757763006,0.8301518272678718,0.6006561379415576
1499368347178,-0.19085984588387905,0.8267338063630119,0.6074921797512776
1499368347210,-0.17474631876096725,0.821850919356069,0.596261539635309
1499368347242,-0.17718776226443866,0.8242923628595404,0.6104219119554433
1499368347274,-0.18451209277485292,0.8194094758525976,0.5781948577096205
1499368347306,-0.18451209277485292,0.8238040741588462,0.6055390249485004
1499368347338,-0.1923247119859619,0.8072022583352405,0.6016327153429462
1499368347370,-0.1952544441901276,0.8238040741588462,0.6094453345540547
1499368347402,-0.1850003814755472,0.8316166933699547,0.6138399328603033
1499368347434,-0.19330128938735047,0.8247806515602347,0.6016327153429462
1499368347466,-0.17816433966582723,0.8233157854581519,0.6206759746700232
1499368347498,-0.1850003814755472,0.818432898451209,0.6094453345540547
1499368347531,-0.18744182497901862,0.8306401159685661,0.6236057068741889
1499368347563,-0.17865262836652152,0.8179446097505148,0.6109102006561375
1499368347595,-0.1854886701762415,0.8125734340428776,0.6128633554589147
1499368347627,-0.1850003814755472,0.8281986724650947,0.6079804684519718
1499368347659,-0.19427786678873904,0.8140383001449605,0.6196993972686347
1499368347691,-0.1923247119859619,0.8267338063630119,0.6128633554589147
1499368347724,-0.18890669108110192,0.8203860532539862,0.6094453345540547
1499368347756,-0.18304722667277007,0.8213626306553747,0.6265354390783555
1499368347788,-0.17962920576791008,0.8242923628595404,0.6196993972686347
1499368347820,-0.18890669108110192,0.8101319905394062,0.616769665064469
1499368347852,-0.19085984588387905,0.8189211871519033,0.6206759746700232
1499368347884,-0.18597695887693577,0.8120851453421833,0.592843518730449
1499368347916,-0.20355535210193043,0.8179446097505148,0.616769665064469
1499368347948,-0.18304722667277007,0.8106202792401005,0.6084687571526661
1499368347980,-0.18744182497901862,0.8208743419546805,0.6221408407721061
1499368348012,-0.18402380407415864,0.8247806515602347,0.6192111085679404
1499368348045,-0.18744182497901862,0.8164797436484319,0.6153047989623861
1499368348077,-0.18402380407415864,0.8228274967574576,0.6177462424658575
1499368348109,-0.1850003814755472,0.8003662165255205,0.5874723430228119
1499368348141,-0.19671931029221046,0.8233157854581519,0.6021210040436404
1499368348173,-0.19085984588387905,0.8360112916762032,0.6128633554589147
1499368348205,-0.18841840238040763,0.8213626306553747,0.6196993972686347
1499368348237,-0.19964904249637616,0.825268940260929,0.6211642633707175
1499368348269,-0.19720759899290474,0.8267338063630119,0.6196993972686347
1499368348301,-0.1854886701762415,0.8179446097505148,0.6055390249485004
1499368348333,-0.1928130006866562,0.818432898451209,0.613351644159609
1499368348365,-0.19183642328526762,0.8081788357366291,0.5904020752269776
1499368348398,-0.19623102159151617,0.8301518272678718,0.6094453345540547
1499368348430,-0.20697337300679042,0.8174563210498205,0.6358129243915469
1499368348462,-0.20355535210193043,0.815014877546349,0.5840543221179519
1499368348494,-0.19671931029221046,0.818432898451209,0.6040741588464176
1499368348526,-0.20404364080262472,0.7998779278248263,0.5957732509346148
1499368348558,-0.19769588769359903,0.8267338063630119,0.6104219119554433
1499368348590,-0.19330128938735047,0.8076905470359348,0.6148165102616918
1499368348622,-0.18695353627832434,0.8228274967574576,0.5991912718394747
1499368348654,-0.19330128938735047,0.828686961165789,0.5967498283360033
1499368348686,-0.20550850690470757,0.8086671244373234,0.6221408407721061
1499368348719,-0.1952544441901276,0.8159914549477376,0.6109102006561375
1499368348751,-0.17816433966582723,0.8242923628595404,0.6011444266422519
1499368348783,-0.19183642328526762,0.8072022583352405,0.6143282215609975
1499368348815,-0.19134813458457334,0.8130617227435719,0.6226291294728004
1499368348847,-0.19427786678873904,0.818432898451209,0.6245822842755775
1499368348879,-0.18451209277485292,0.8140383001449605,0.6153047989623861
1499368348911,-0.201113908598459,0.8189211871519033,0.6162813763637747
1499368348943,-0.18988326848249049,0.815014877546349,0.6250705729762727
1499368348975,-0.18841840238040763,0.8301518272678718,0.6109102006561375
1499368349008,-0.18841840238040763,0.8135500114442662,0.6094453345540547
1499368349040,-0.18255893797207579,0.8164797436484319,0.6323949034866869
1499368349072,-0.19623102159151617,0.8115968566414891,0.603097581445029
1499368349105,-0.1928130006866562,0.825268940260929,0.6280003051804384
1499368349137,-0.18646524757763006,0.8052491035324634,0.5991912718394747
1499368349169,-0.19037155718318477,0.8296635385671776,0.603097581445029
1499368349201,-0.19085984588387905,0.8086671244373234,0.6192111085679404
1499368349233,-0.19671931029221046,0.8242923628595404,0.6001678492408633
1499368349265,-0.19476615548943332,0.821850919356069,0.6172579537651632
1499368349297,-0.2016021972991533,0.8106202792401005,0.6113984893568318
1499368349329,-0.18353551537346435,0.8296635385671776,0.6387426565957126
1499368349361,-0.19183642328526762,0.8194094758525976,0.6089570458533604
1499368349393,-0.1820706492713815,0.8223392080567633,0.6113984893568318
1499368349426,-0.18841840238040763,0.8203860532539862,0.5987029831387805
1499368349458,-0.19183642328526762,0.8281986724650947,0.5972381170366976
1499368349490,-0.1923247119859619,0.8257572289616233,0.6143282215609975
1499368349522,-0.1893949797817962,0.825268940260929,0.6104219119554433
1499368349554,-0.1981841763942933,0.8194094758525976,0.6021210040436404
1499368349586,-0.1757228961623558,0.8179446097505148,0.6148165102616918
1499368349618,-0.18402380407415864,0.8335698481727318,0.6079804684519718
1499368349650,-0.1850003814755472,0.8213626306553747,0.6084687571526661
1499368349682,-0.1854886701762415,0.818432898451209,0.5947966735332262
1499368349714,-0.18695353627832434,0.8272220950637061,0.5850308995193405
1499368349746,-0.20013733119707044,0.8350347142748147,0.5967498283360033
1499368349779,-0.20013733119707044,0.8316166933699547,0.6055390249485004
1499368349811,-0.19769588769359903,0.8174563210498205,0.6148165102616918
1499368349843,-0.17865262836652152,0.8325932707713433,0.6094453345540547
1499368349875,-0.1762111848630501,0.8262455176623176,0.6089570458533604
1499368349907,-0.17816433966582723,0.8101319905394062,0.5899137865262833
1499368349939,-0.17181658655680154,0.8135500114442662,0.5796597238117034
1499368349971,-0.1957427328908219,0.8101319905394062,0.5943083848325319
1499368350003,-0.1854886701762415,0.8262455176623176,0.5913786526283662
1499368350035,-0.1928130006866562,0.8233157854581519,0.6055390249485004
1499368350067,-0.17181658655680154,0.8433356221866175,0.5904020752269776
1499368350100,-0.18402380407415864,0.825268940260929,0.592843518730449
1499368350132,-0.18255893797207579,0.8145265888456548,0.6089570458533604
1499368350164,-0.1762111848630501,0.8277103837644004,0.6089570458533604
1499368350196,-0.18304722667277007,0.8208743419546805,0.6089570458533604
1499368350228,-0.18451209277485292,0.8277103837644004,0.6138399328603033
1499368350260,-0.19476615548943332,0.8394293125810632,0.6153047989623861
1499368350293,-0.18353551537346435,0.8506599526970318,0.6338597695887698
1499368350325,-0.19037155718318477,0.821850919356069,0.5864957656214234
1499368350357,-0.1981841763942933,0.8262455176623176,0.5967498283360033
1499368350389,-0.18353551537346435,0.8316166933699547,0.6138399328603033
1499368350421,-0.18841840238040763,0.825268940260929,0.6006561379415576
1499368350453,-0.20404364080262472,0.828686961165789,0.6055390249485004
1499368350485,-0.201113908598459,0.8228274967574576,0.5899137865262833
1499368350517,-0.20257877470054186,0.8335698481727318,0.609933623254749
1499368350549,-0.19427786678873904,0.8394293125810632,0.5982146944380862
1499368350582,-0.1981841763942933,0.8135500114442662,0.5991912718394747
1499368350614,-0.1957427328908219,0.8369878690775918,0.6055390249485004
1499368350646,-0.20306706340123615,0.8203860532539862,0.6055390249485004
1499368350678,-0.20697337300679042,0.8281986724650947,0.6060273136491947
1499368350710,-0.19476615548943332,0.8233157854581519,0.5982146944380862
1499368350742,-0.1986724650949876,0.8203860532539862,0.5947966735332262
1499368350774,-0.18451209277485292,0.825268940260929,0.6172579537651632
1499368350806,-0.201113908598459,0.8296635385671776,0.5982146944380862
1499368350838,-0.19720759899290474,0.8189211871519033,0.5864957656214234
1499368350870,-0.20550850690470757,0.8189211871519033,0.580636301213092
1499368350903,-0.19916075379568188,0.8076905470359348,0.5982146944380862
1499368350935,-0.19427786678873904,0.8228274967574576,0.596261539635309
1499368350967,-0.20257877470054186,0.8223392080567633,0.5982146944380862
1499368350999,-0.18744182497901862,0.8262455176623176,0.6026092927443347
1499368351031,-0.20257877470054186,0.8228274967574576,0.6016327153429462
1499368351063,-0.1986724650949876,0.8120851453421833,0.606515602349889
1499368351095,-0.19476615548943332,0.8189211871519033,0.5904020752269776
1499368351127,-0.19183642328526762,0.8135500114442662,0.6104219119554433
1499368351159,-0.20209048599984758,0.8169680323491262,0.609933623254749
1499368351191,-0.1957427328908219,0.815014877546349,0.6094453345540547
1499368351224,-0.19427786678873904,0.8223392080567633,0.6143282215609975
1499368351256,-0.1923247119859619,0.8086671244373234,0.6026092927443347
1499368351288,-0.19134813458457334,0.8306401159685661,0.6143282215609975
1499368351320,-0.19623102159151617,0.8213626306553747,0.6270237277790498
1499368351352,-0.2016021972991533,0.821850919356069,0.6153047989623861
1499368351384,-0.19427786678873904,0.8213626306553747,0.6026092927443347
1499368351416,-0.18841840238040763,0.8169680323491262,0.6211642633707175
1499368351448,-0.1923247119859619,0.825268940260929,0.625558861676967
1499368351480,-0.19671931029221046,0.8238040741588462,0.5811245899137862
1499368351512,-0.201113908598459,0.8238040741588462,0.6211642633707175
1499368351545,-0.18597695887693577,0.8325932707713433,0.5899137865262833
1499368351577,-0.20599679560540185,0.8179446097505148,0.6089570458533604
1499368351609,-0.19964904249637616,0.8296635385671776,0.599679560540169
1499368351641,-0.1850003814755472,0.8330815594720375,0.613351644159609
1499368351673,-0.201113908598459,0.8003662165255205,0.5987029831387805
1499368351706,-0.20355535210193043,0.8330815594720375,0.6084687571526661
1499368351738,-0.20355535210193043,0.828686961165789,0.6206759746700232
1499368351770,-0.18646524757763006,0.8179446097505148,0.6201876859693289
1499368351802,-0.19720759899290474,0.828686961165789,0.6060273136491947
1499368351834,-0.1923247119859619,0.825268940260929,0.599679560540169
1499368351866,-0.20062561989776473,0.8145265888456548,0.6001678492408633
1499368351898,-0.1957427328908219,0.838941023880369,0.6089570458533604
1499368351930,-0.20550850690470757,0.8228274967574576,0.6138399328603033
1499368351962,-0.20013733119707044,0.8247806515602347,0.613351644159609
1499368351994,-0.19916075379568188,0.8238040741588462,0.5991912718394747
1499368352027,-0.20257877470054186,0.8257572289616233,0.6021210040436404
1499368352059,-0.19476615548943332,0.8281986724650947,0.6177462424658575
1499368352091,-0.19964904249637616,0.8408941786831461,0.6094453345540547
1499368352123,-0.20941481651026184,0.838941023880369,0.6104219119554433
1499368352155,-0.1957427328908219,0.8125734340428776,0.5982146944380862
1499368352187,-0.204531929503319,0.8350347142748147,0.5938200961318376
1499368352219,-0.19427786678873904,0.8296635385671776,0.5918669413290605
1499368352251,-0.19623102159151617,0.8238040741588462,0.5947966735332262
1499368352283,-0.19623102159151617,0.8281986724650947,0.5943083848325319
1499368352315,-0.20794995040817899,0.8335698481727318,0.580636301213092
1499368352348,-0.19720759899290474,0.8482185091935603,0.6113984893568318
1499368352380,-0.18597695887693577,0.8203860532539862,0.6001678492408633
1499368352412,-0.19330128938735047,0.8296635385671776,0.5991912718394747
1499368352444,-0.18841840238040763,0.8360112916762032,0.606515602349889
1499368352476,-0.19183642328526762,0.8267338063630119,0.6011444266422519
1499368352508,-0.18109407186999293,0.8228274967574576,0.603097581445029
1499368352540,-0.1820706492713815,0.8257572289616233,0.6001678492408633
1499368352572,-0.18060578316929865,0.8203860532539862,0.6011444266422519
1499368352604,-0.1762111848630501,0.8277103837644004,0.6094453345540547
1499368352636,-0.17767605096513295,0.8189211871519033,0.6040741588464176
1499368352669,-0.17084000915541298,0.8272220950637061,0.6006561379415576
1499368352701,-0.18793011367971335,0.8067139696345462,0.609933623254749
1499368352733,-0.17181658655680154,0.8223392080567633,0.609933623254749
1499368352765,-0.18011749446860437,0.795971618219272,0.5913786526283662
1499368352797,-0.17962920576791008,0.8238040741588462,0.5987029831387805
1499368352829,-0.1820706492713815,0.8223392080567633,0.6236057068741889
1499368352862,-0.1757228961623558,0.8267338063630119,0.6026092927443347
1499368352894,-0.17767605096513295,0.8238040741588462,0.6182345311665518
1499368352926,-0.1669336995498587,0.8223392080567633,0.6157930876630804
1499368352958,-0.1791409170672158,0.8262455176623176,0.6265354390783555
1499368352990,-0.18402380407415864,0.8325932707713433,0.6035858701457233
1499368353022,-0.18353551537346435,0.8159914549477376,0.6084687571526661
1499368353054,-0.17767605096513295,0.8262455176623176,0.6026092927443347
1499368353086,-0.18109407186999293,0.8203860532539862,0.6157930876630804
1499368353118,-0.18402380407415864,0.8257572289616233,0.6113984893568318
1499368353151,-0.18060578316929865,0.8262455176623176,0.6157930876630804
1499368353183,-0.18646524757763006,0.8189211871519033,0.6192111085679404
1499368353215,-0.18353551537346435,0.8135500114442662,0.6109102006561375
1499368353247,-0.19183642328526762,0.828686961165789,0.613351644159609
1499368353279,-0.1850003814755472,0.8325932707713433,0.6148165102616918
1499368353311,-0.1791409170672158,0.8208743419546805,0.6216525520714118
1499368353343,-0.18988326848249049,0.8438239108873118,0.6367895017929355
1499368353375,-0.1820706492713815,0.8023193713282977,0.6157930876630804
1499368353407,-0.18451209277485292,0.8179446097505148,0.6192111085679404
1499368353439,-0.18841840238040763,0.8208743419546805,0.6074921797512776
1499368353472,-0.18011749446860437,0.8203860532539862,0.6162813763637747
1499368353504,-0.18988326848249049,0.8091554131380176,0.6138399328603033
1499368353536,-0.1854886701762415,0.8159914549477376,0.6196993972686347
1499368353568,-0.17425803006027296,0.8379644464789804,0.6221408407721061
1499368353600,-0.18744182497901862,0.8130617227435719,0.6123750667582204
1499368353632,-0.18353551537346435,0.8189211871519033,0.6216525520714118
1499368353664,-0.1820706492713815,0.8179446097505148,0.6236057068741889
1499368353696,-0.18011749446860437,0.8203860532539862,0.6216525520714118
1499368353728,-0.1928130006866562,0.8140383001449605,0.6162813763637747
1499368353760,-0.18988326848249049,0.8267338063630119,0.616769665064469
1499368353793,-0.17962920576791008,0.8072022583352405,0.6138399328603033
1499368353825,-0.19085984588387905,0.8203860532539862,0.603097581445029
1499368353857,-0.18304722667277007,0.8159914549477376,0.6221408407721061
1499368353889,-0.18109407186999293,0.8106202792401005,0.613351644159609
1499368353921,-0.19134813458457334,0.8037842374303805,0.5918669413290605
1499368353953,-0.19476615548943332,0.8145265888456548,0.609933623254749
1499368353985,-0.18988326848249049,0.8047608148317691,0.6094453345540547
1499368354017,-0.1952544441901276,0.8159914549477376,0.6201876859693289
1499368354049,-0.18402380407415864,0.8159914549477376,0.6250705729762727
1499368354082,-0.19330128938735047,0.8076905470359348,0.6148165102616918
1499368354114,-0.1854886701762415,0.8179446097505148,0.6323949034866869
1499368354146,-0.1820706492713815,0.8106202792401005,0.6231174181734946
1499368354178,-0.19037155718318477,0.8076905470359348,0.6045624475471119
1499368354210,-0.19427786678873904,0.8052491035324634,0.6245822842755775
1499368354242,-0.19085984588387905,0.8198977645532919,0.6196993972686347
1499368354274,-0.18597695887693577,0.8115968566414891,0.6343480582894641
1499368354306,-0.19183642328526762,0.8145265888456548,0.6226291294728004
1499368354339,-0.19037155718318477,0.8111085679407948,0.6172579537651632
1499368354371,-0.1952544441901276,0.8159914549477376,0.6236057068741889
1499368354403,-0.18695353627832434,0.825268940260929,0.6153047989623861
1499368354435,-0.18744182497901862,0.8140383001449605,0.6280003051804384
1499368354467,-0.1893949797817962,0.8198977645532919,0.599679560540169
1499368354499,-0.19085984588387905,0.8140383001449605,0.6177462424658575
1499368354531,-0.1928130006866562,0.8159914549477376,0.6270237277790498
1499368354563,-0.19134813458457334,0.8238040741588462,0.6348363469901583
1499368354595,-0.18646524757763006,0.8345464255741204,0.6494850080109869
1499368354627,-0.18255893797207579,0.8091554131380176,0.609933623254749
1499368354660,-0.19183642328526762,0.8203860532539862,0.6270237277790498
1499368354692,-0.1986724650949876,0.8174563210498205,0.6109102006561375
1499368354724,-0.19330128938735047,0.8213626306553747,0.5957732509346148
1499368354756,-0.1952544441901276,0.8155031662470433,0.6138399328603033
1499368354788,-0.20062561989776473,0.8159914549477376,0.6211642633707175
1499368354820,-0.19964904249637616,0.8296635385671776,0.6289768825818269
1499368354852,-0.17132829785610726,0.8140383001449605,0.6245822842755775
1499368354884,-0.1928130006866562,0.8174563210498205,0.6040741588464176
1499368354916,-0.20648508430609613,0.8277103837644004,0.6196993972686347
1499368354948,-0.20062561989776473,0.8223392080567633,0.6182345311665518
1499368354981,-0.18793011367971335,0.8101319905394062,0.6289768825818269
1499368355013,-0.19964904249637616,0.8203860532539862,0.6299534599832155
1499368355045,-0.204531929503319,0.8272220950637061,0.613351644159609
1499368355077,-0.1820706492713815,0.8057373922331577,0.6192111085679404
1499368355109,-0.18597695887693577,0.8198977645532919,0.6104219119554433
1499368355141,-0.20062561989776473,0.8228274967574576,0.6182345311665518
1499368355173,-0.18890669108110192,0.8228274967574576,0.637766079194324
1499368355205,-0.18060578316929865,0.8296635385671776,0.6265354390783555
1499368355237,-0.19330128938735047,0.8223392080567633,0.6211642633707175
1499368355269,-0.18890669108110192,0.8213626306553747,0.6148165102616918
1499368355302,-0.18890669108110192,0.828686961165789,0.6011444266422519
1499368355334,-0.18402380407415864,0.8223392080567633,0.613351644159609
1499368355366,-0.17767605096513295,0.8203860532539862,0.5913786526283662
1499368355398,-0.19720759899290474,0.8140383001449605,0.6123750667582204
1499368355431,-0.18744182497901862,0.8125734340428776,0.6206759746700232
1499368355463,-0.1850003814755472,0.8228274967574576,0.6211642633707175
1499368355495,-0.1820706492713815,0.8233157854581519,0.6157930876630804
1499368355527,-0.18353551537346435,0.8091554131380176,0.6196993972686347
1499368355559,-0.17425803006027296,0.8233157854581519,0.6109102006561375
1499368355591,-0.1923247119859619,0.8208743419546805,0.6055390249485004
1499368355623,-0.17669947356374438,0.8267338063630119,0.6172579537651632
1499368355655,-0.17718776226443866,0.8194094758525976,0.6021210040436404
1499368355687,-0.18109407186999293,0.8164797436484319,0.6040741588464176
1499368355720,-0.1928130006866562,0.8198977645532919,0.6177462424658575
1499368355752,-0.1850003814755472,0.8194094758525976,0.6289768825818269
1499368355784,-0.17425803006027296,0.8379644464789804,0.6192111085679404
1499368355816,-0.18353551537346435,0.8135500114442662,0.5884489204242005
1499368355848,-0.1820706492713815,0.8311284046692604,0.6289768825818269
1499368355880,-0.18255893797207579,0.8174563210498205,0.6040741588464176
1499368355912,-0.18646524757763006,0.8272220950637061,0.6314183260852984
1499368355944,-0.19134813458457334,0.8262455176623176,0.6026092927443347
1499368355976,-0.18353551537346435,0.8291752498664833,0.5957732509346148
1499368356008,-0.18646524757763006,0.8223392080567633,0.6011444266422519
1499368356041,-0.18890669108110192,0.8189211871519033,0.6192111085679404
1499368356073,-0.18353551537346435,0.8194094758525976,0.6128633554589147
1499368356105,-0.18744182497901862,0.8428473334859232,0.6001678492408633
1499368356137,-0.17718776226443866,0.8169680323491262,0.6026092927443347
1499368356169,-0.19037155718318477,0.8306401159685661,0.6026092927443347
1499368356201,-0.18158236057068722,0.8223392080567633,0.6040741588464176
1499368356233,-0.1854886701762415,0.8238040741588462,0.5952849622339205
1499368356265,-0.18353551537346435,0.8189211871519033,0.6299534599832155
1499368356297,-0.19085984588387905,0.818432898451209,0.6021210040436404
1499368356329,-0.17767605096513295,0.8262455176623176,0.6070038910505833
1499368356362,-0.17230487525749583,0.8238040741588462,0.6084687571526661
1499368356394,-0.1762111848630501,0.8311284046692604,0.6094453345540547
1499368356426,-0.18304722667277007,0.8125734340428776,0.5923552300297548
1499368356458,-0.1854886701762415,0.8159914549477376,0.6060273136491947
1499368356490,-0.18255893797207579,0.8174563210498205,0.6074921797512776
1499368356522,-0.18597695887693577,0.8213626306553747,0.6157930876630804
1499368356554,-0.17669947356374438,0.8238040741588462,0.6177462424658575
1499368356586,-0.19085984588387905,0.8169680323491262,0.6226291294728004
1499368356618,-0.18109407186999293,0.8198977645532919,0.616769665064469
1499368356651,-0.19085984588387905,0.8106202792401005,0.6192111085679404
1499368356683,-0.19916075379568188,0.8145265888456548,0.6162813763637747
1499368356715,-0.2016021972991533,0.8379644464789804,0.609933623254749
1499368356747,-0.1820706492713815,0.8072022583352405,0.6309300373846041
1499368356779,-0.1850003814755472,0.8135500114442662,0.6104219119554433
1499368356811,-0.19037155718318477,0.8198977645532919,0.6172579537651632
1499368356843,-0.1928130006866562,0.8052491035324634,0.6172579537651632
1499368356876,-0.18402380407415864,0.8194094758525976,0.6245822842755775
1499368356908,-0.19183642328526762,0.8233157854581519,0.6070038910505833
1499368356940,-0.19476615548943332,0.821850919356069,0.6157930876630804
1499368356972,-0.17962920576791008,0.8164797436484319,0.6026092927443347
1499368357004,-0.18304722667277007,0.7949950408178834,0.6148165102616918
1499368357036,-0.19476615548943332,0.8491950865949489,0.5830777447165634
1499368357068,-0.18744182497901862,0.782299534599832,0.6289768825818269
1499368357100,-0.1957427328908219,0.8155031662470433,0.6250705729762727
1499368357132,-0.19378957808804476,0.8345464255741204,0.6226291294728004
1499368357165,-0.1854886701762415,0.8067139696345462,0.606515602349889
1499368357197,-0.19085984588387905,0.8091554131380176,0.6289768825818269
1499368357229,-0.20355535210193043,0.8159914549477376,0.6289768825818269
1499368357261,-0.19085984588387905,0.7969481956206605,0.596261539635309
1499368357293,-0.18793011367971335,0.8115968566414891,0.6084687571526661
1499368357325,-0.19378957808804476,0.8145265888456548,0.6172579537651632
1499368357357,-0.19134813458457334,0.8120851453421833,0.6221408407721061
1499368357389,-0.17865262836652152,0.8115968566414891,0.6353246356908526
1499368357421,-0.1893949797817962,0.8062256809338519,0.6304417486839098
1499368357453,-0.1791409170672158,0.8111085679407948,0.6275120164797441
1499368357486,-0.20550850690470757,0.8111085679407948,0.6079804684519718
1499368357518,-0.18255893797207579,0.8179446097505148,0.6333714808880755
1499368357550,-0.18695353627832434,0.8208743419546805,0.6216525520714118
1499368357582,-0.1893949797817962,0.8076905470359348,0.6240939955748832
1499368357614,-0.19623102159151617,0.8213626306553747,0.6553444724193183
1499368357646,-0.1850003814755472,0.818432898451209,0.5967498283360033
1499368357678,-0.1923247119859619,0.8096437018387119,0.6363012130922412
1499368357710,-0.1981841763942933,0.8174563210498205,0.6323949034866869
1499368357742,-0.18597695887693577,0.8091554131380176,0.6221408407721061
1499368357774,-0.18597695887693577,0.8106202792401005,0.6363012130922412
1499368357807,-0.18011749446860437,0.8194094758525976,0.6284885938811327
1499368357839,-0.18841840238040763,0.8067139696345462,0.6314183260852984
1499368357871,-0.19916075379568188,0.8194094758525976,0.6172579537651632
1499368357903,-0.18890669108110192,0.8145265888456548,0.6338597695887698
1499368357935,-0.18988326848249049,0.8169680323491262,0.6206759746700232
1499368357967,-0.18353551537346435,0.8096437018387119,0.6182345311665518
1499368358000,-0.18695353627832434,0.8052491035324634,0.6304417486839098
1499368358032,-0.18402380407415864,0.8101319905394062,0.6348363469901583
1499368358064,-0.19427786678873904,0.8106202792401005,0.641184100099184
1499368358096,-0.18744182497901862,0.8062256809338519,0.6309300373846041
1499368358128,-0.1850003814755472,0.8106202792401005,0.6221408407721061
1499368358160,-0.17474631876096725,0.802807660028992,0.6348363469901583
1499368358192,-0.19427786678873904,0.8159914549477376,0.6309300373846041
1499368358224,-0.1727931639581901,0.815014877546349,0.6465552758068212
1499368358256,-0.16351567864499872,0.8238040741588462,0.6348363469901583
1499368358288,-0.17816433966582723,0.8223392080567633,0.6509498741130697
1499368358321,-0.19037155718318477,0.818432898451209,0.625558861676967
1499368358353,-0.17474631876096725,0.8159914549477376,0.6216525520714118
1499368358385,-0.18353551537346435,0.8242923628595404,0.6265354390783555
1499368358417,-0.18158236057068722,0.8140383001449605,0.616769665064469
1499368358449,-0.17669947356374438,0.8115968566414891,0.6206759746700232
1499368358481,-0.18304722667277007,0.8125734340428776,0.6221408407721061
1499368358513,-0.18353551537346435,0.8262455176623176,0.6240939955748832
1499368358545,-0.18304722667277007,0.8164797436484319,0.6177462424658575
1499368358577,-0.1820706492713815,0.8189211871519033,0.6192111085679404
1499368358609,-0.18597695887693577,0.818432898451209,0.613351644159609
1499368358642,-0.18109407186999293,0.8120851453421833,0.6172579537651632
1499368358674,-0.17816433966582723,0.8194094758525976,0.6250705729762727
1499368358706,-0.17962920576791008,0.815014877546349,0.616769665064469
1499368358738,-0.17962920576791008,0.818432898451209,0.6128633554589147
1499368358770,-0.1791409170672158,0.8291752498664833,0.6196993972686347
1499368358802,-0.17962920576791008,0.8174563210498205,0.6055390249485004
1499368358834,-0.1644922560463873,0.8233157854581519,0.6055390249485004
1499368358866,-0.17767605096513295,0.8120851453421833,0.606515602349889
1499368358898,-0.17767605096513295,0.8057373922331577,0.6206759746700232
1499368358931,-0.17767605096513295,0.8189211871519033,0.6074921797512776
1499368358963,-0.17132829785610726,0.8262455176623176,0.6343480582894641
1499368358995,-0.17425803006027296,0.8194094758525976,0.599679560540169
1499368359027,-0.1762111848630501,0.8345464255741204,0.606515602349889
1499368359059,-0.1669336995498587,0.8233157854581519,0.6172579537651632
1499368359091,-0.16937514305333012,0.8057373922331577,0.6045624475471119
1499368359123,-0.17181658655680154,0.8164797436484319,0.6089570458533604
1499368359155,-0.17474631876096725,0.821850919356069,0.6138399328603033
1499368359187,-0.15863279163805588,0.8228274967574576,0.6104219119554433
1499368359219,-0.1703517204547187,0.8189211871519033,0.6275120164797441
1499368359252,-0.17181658655680154,0.8277103837644004,0.6074921797512776
1499368359284,-0.1703517204547187,0.8296635385671776,0.6113984893568318
1499368359316,-0.16644541084916442,0.8111085679407948,0.6138399328603033
1499368359348,-0.167421988250553,0.8272220950637061,0.5938200961318376
1499368359380,-0.16351567864499872,0.825268940260929,0.6074921797512776
1499368359412,-0.1703517204547187,0.8277103837644004,0.6055390249485004
1499368359444,-0.16791027695124727,0.8233157854581519,0.5957732509346148
1499368359477,-0.17865262836652152,0.8325932707713433,0.6284885938811327
1499368359509,-0.16937514305333012,0.8291752498664833,0.6113984893568318
1499368359541,-0.1644922560463873,0.8291752498664833,0.599679560540169
1499368359573,-0.16791027695124727,0.8350347142748147,0.609933623254749
1499368359605,-0.17181658655680154,0.8277103837644004,0.616769665064469
1499368359637,-0.16156252384222158,0.8198977645532919,0.6128633554589147
1499368359669,-0.1928130006866562,0.8125734340428776,0.6084687571526661
1499368359701,-0.16253910124361015,0.8369878690775918,0.6113984893568318
1499368359733,-0.1669336995498587,0.8262455176623176,0.6299534599832155
1499368359766,-0.16937514305333012,0.8277103837644004,0.6299534599832155
1499368359798,-0.1576562142366673,0.8169680323491262,0.6157930876630804
1499368359830,-0.17132829785610726,0.8208743419546805,0.6206759746700232
1499368359862,-0.16302738994430443,0.8233157854581519,0.6060273136491947
1499368359894,-0.15912108033875016,0.8208743419546805,0.6226291294728004
1499368359926,-0.1581445029373616,0.8213626306553747,0.6226291294728004
1499368359958,-0.16546883344777585,0.8164797436484319,0.6201876859693289
1499368359990,-0.1644922560463873,0.818432898451209,0.6143282215609975
1499368360022,-0.17669947356374438,0.8179446097505148,0.6060273136491947
1499368360054,-0.17084000915541298,0.8301518272678718,0.6226291294728004
1499368360087,-0.1703517204547187,0.8062256809338519,0.6172579537651632
1499368360119,-0.16595712214847014,0.815014877546349,0.6172579537651632
1499368360151,-0.17474631876096725,0.8311284046692604,0.6196993972686347
1499368360183,-0.17523460746166153,0.8208743419546805,0.6070038910505833
1499368360215,-0.17718776226443866,0.8257572289616233,0.609933623254749
1499368360247,-0.17132829785610726,0.8042725261310748,0.6216525520714118
1499368360279,-0.16888685435263584,0.8404058899824518,0.6431372549019612
1499368360311,-0.16888685435263584,0.821850919356069,0.6021210040436404
1499368360343,-0.17474631876096725,0.8145265888456548,0.6211642633707175
1499368360376,-0.1727931639581901,0.8174563210498205,0.6153047989623861
1499368360408,-0.17865262836652152,0.8208743419546805,0.6162813763637747
1499368360440,-0.1820706492713815,0.8233157854581519,0.6231174181734946
1499368360472,-0.18402380407415864,0.8037842374303805,0.6026092927443347
1499368360504,-0.17084000915541298,0.821850919356069,0.6148165102616918
1499368360536,-0.1732814526588844,0.8169680323491262,0.6021210040436404
1499368360568,-0.18060578316929865,0.8325932707713433,0.6157930876630804
1499368360600,-0.18060578316929865,0.8277103837644004,0.6113984893568318
1499368360633,-0.1757228961623558,0.8052491035324634,0.5923552300297548
1499368360665,-0.18890669108110192,0.8111085679407948,0.6206759746700232
1499368360697,-0.18011749446860437,0.8159914549477376,0.6153047989623861
1499368360729,-0.1791409170672158,0.8135500114442662,0.6250705729762727
1499368360761,-0.19037155718318477,0.8179446097505148,0.6089570458533604
1499368360793,-0.18158236057068722,0.8262455176623176,0.6109102006561375
1499368360825,-0.18304722667277007,0.8091554131380176,0.6153047989623861
1499368360857,-0.1791409170672158,0.8052491035324634,0.6240939955748832
1499368360889,-0.18158236057068722,0.8159914549477376,0.6231174181734946
1499368360922,-0.1791409170672158,0.8159914549477376,0.6231174181734946
1499368360954,-0.17718776226443866,0.8179446097505148,0.6250705729762727
1499368360986,-0.1791409170672158,0.8247806515602347,0.625558861676967
1499368361018,-0.18793011367971335,0.8057373922331577,0.6309300373846041
1499368361050,-0.17962920576791008,0.8120851453421833,0.6333714808880755
1499368361082,-0.18402380407415864,0.8135500114442662,0.6289768825818269
1499368361114,-0.18646524757763006,0.8091554131380176,0.6196993972686347
1499368361146,-0.18793011367971335,0.8242923628595404,0.625558861676967
1499368361178,-0.18255893797207579,0.8101319905394062,0.6284885938811327
1499368361210,-0.19427786678873904,0.8106202792401005,0.6153047989623861
1499368361243,-0.1981841763942933,0.8003662165255205,0.599679560540169
1499368361275,-0.19037155718318477,0.8115968566414891,0.6045624475471119
1499368361307,-0.18304722667277007,0.8091554131380176,0.6143282215609975
1499368361339,-0.18793011367971335,0.8125734340428776,0.637766079194324
1499368361371,-0.1854886701762415,0.8115968566414891,0.6304417486839098
1499368361403,-0.1850003814755472,0.8111085679407948,0.6148165102616918
1499368361435,-0.1928130006866562,0.8057373922331577,0.6406958113984897
1499368361467,-0.18695353627832434,0.8018310826276034,0.613351644159609
1499368361499,-0.1850003814755472,0.8111085679407948,0.609933623254749
1499368361532,-0.19427786678873904,0.8247806515602347,0.6250705729762727
1499368361564,-0.18841840238040763,0.8101319905394062,0.6319066147859926
1499368361596,-0.1957427328908219,0.8052491035324634,0.6265354390783555
1499368361628,-0.18793011367971335,0.8032959487296862,0.6323949034866869
1499368361660,-0.19427786678873904,0.8179446097505148,0.6382543678950183
1499368361692,-0.18158236057068722,0.7940184634164948,0.6421606775005726
1499368361724,-0.201113908598459,0.8067139696345462,0.6397192339971012
1499368361756,-0.20062561989776473,0.8296635385671776,0.6382543678950183
1499368361788,-0.18158236057068722,0.7935301747158006,0.6387426565957126
1499368361820,-0.1957427328908219,0.825268940260929,0.6431372549019612
1499368361853,-0.19964904249637616,0.8174563210498205,0.6074921797512776
1499368361885,-0.20502021820401328,0.8072022583352405,0.641184100099184
1499368361917,-0.1928130006866562,0.8091554131380176,0.6196993972686347
1499368361949,-0.1957427328908219,0.8125734340428776,0.6201876859693289
1499368361981,-0.18451209277485292,0.8032959487296862,0.6172579537651632
1499368362013,-0.19378957808804476,0.8194094758525976,0.616769665064469
1499368362045,-0.1928130006866562,0.802807660028992,0.6309300373846041
1499368362077,-0.18890669108110192,0.7984130617227434,0.6250705729762727
1499368362109,-0.18646524757763006,0.8115968566414891,0.6284885938811327
1499368362141,-0.1854886701762415,0.8042725261310748,0.6504615854123754
1499368362174,-0.1791409170672158,0.7984130617227434,0.6426489662012669
1499368362206,-0.19183642328526762,0.8062256809338519,0.6392309452964069
1499368362238,-0.18841840238040763,0.8081788357366291,0.6348363469901583
1499368362270,-0.1928130006866562,0.8037842374303805,0.6343480582894641
1499368362302,-0.17865262836652152,0.795971618219272,0.6455786984054326
1499368362334,-0.19427786678873904,0.8101319905394062,0.6333714808880755
1499368362366,-0.19037155718318477,0.8032959487296862,0.6426489662012669
1499368362398,-0.18597695887693577,0.802807660028992,0.644602121004044
1499368362430,-0.18597695887693577,0.7974364843213548,0.6499732967116811
1499368362463,-0.20599679560540185,0.7984130617227434,0.6055390249485004
1499368362495,-0.19671931029221046,0.7974364843213548,0.6265354390783555
1499368362527,-0.19037155718318477,0.7954833295185777,0.6304417486839098
1499368362559,-0.1850003814755472,0.8130617227435719,0.6372777904936298
1499368362591,-0.18695353627832434,0.8072022583352405,0.6436255436026554
1499368362623,-0.19037155718318477,0.8037842374303805,0.6338597695887698
1499368362655,-0.18109407186999293,0.8086671244373234,0.6196993972686347
1499368362687,-0.1820706492713815,0.8057373922331577,0.6294651712825212
1499368362719,-0.20550850690470757,0.7915770199130234,0.6319066147859926
1499368362752,-0.18304722667277007,0.8086671244373234,0.6123750667582204
1499368362784,-0.18304722667277007,0.8018310826276034,0.6231174181734946
1499368362816,-0.18011749446860437,0.8052491035324634,0.6211642633707175
1499368362848,-0.19183642328526762,0.8189211871519033,0.6162813763637747
1499368362880,-0.19037155718318477,0.8037842374303805,0.6363012130922412
1499368362912,-0.18793011367971335,0.8037842374303805,0.6333714808880755
1499368362944,-0.18793011367971335,0.8169680323491262,0.6172579537651632
1499368362976,-0.18255893797207579,0.8106202792401005,0.6157930876630804
1499368363008,-0.1757228961623558,0.8125734340428776,0.6148165102616918
1499368363040,-0.17816433966582723,0.8057373922331577,0.6240939955748832
1499368363073,-0.18793011367971335,0.8164797436484319,0.6206759746700232
1499368363105,-0.17865262836652152,0.821850919356069,0.6406958113984897
1499368363137,-0.19037155718318477,0.8057373922331577,0.6524147402151526
1499368363169,-0.1791409170672158,0.8086671244373234,0.6172579537651632
1499368363201,-0.17962920576791008,0.8145265888456548,0.6245822842755775
1499368363234,-0.18304722667277007,0.8169680323491262,0.6265354390783555
1499368363266,-0.1757228961623558,0.8189211871519033,0.6201876859693289
1499368363298,-0.1732814526588844,0.821850919356069,0.6157930876630804
1499368363330,-0.18793011367971335,0.8111085679407948,0.6245822842755775
1499368363362,-0.18158236057068722,0.838941023880369,0.641184100099184
1499368363394,-0.18451209277485292,0.8257572289616233,0.6245822842755775
1499368363426,-0.18451209277485292,0.8081788357366291,0.616769665064469
1499368363458,-0.18060578316929865,0.8120851453421833,0.6172579537651632
1499368363490,-0.18109407186999293,0.8067139696345462,0.6250705729762727
1499368363522,-0.17865262836652152,0.8208743419546805,0.6192111085679404
1499368363555,-0.19037155718318477,0.8155031662470433,0.613351644159609
1499368363587,-0.18158236057068722,0.8062256809338519,0.6079804684519718
1499368363619,-0.1850003814755472,0.8242923628595404,0.6221408407721061
1499368363651,-0.18109407186999293,0.8086671244373234,0.6250705729762727
1499368363683,-0.1757228961623558,0.8194094758525976,0.6475318532082097
1499368363715,-0.17474631876096725,0.8145265888456548,0.5982146944380862
1499368363747,-0.18744182497901862,0.8179446097505148,0.6323949034866869
1499368363779,-0.17816433966582723,0.8120851453421833,0.6236057068741889
1499368363811,-0.17523460746166153,0.8140383001449605,0.6089570458533604
1499368363844,-0.1893949797817962,0.8155031662470433,0.6196993972686347
1499368363876,-0.16546883344777585,0.8140383001449605,0.6153047989623861
1499368363908,-0.1757228961623558,0.8023193713282977,0.6236057068741889
1499368363940,-0.1820706492713815,0.8096437018387119,0.6148165102616918
1499368363972,-0.18402380407415864,0.8111085679407948,0.6216525520714118
1499368364004,-0.17816433966582723,0.8335698481727318,0.6338597695887698
1499368364036,-0.1757228961623558,0.8101319905394062,0.6343480582894641
1499368364068,-0.17865262836652152,0.8242923628595404,0.6363012130922412
1499368364100,-0.17767605096513295,0.8233157854581519,0.6284885938811327
1499368364133,-0.17523460746166153,0.8140383001449605,0.6299534599832155
1499368364165,-0.17718776226443866,0.8223392080567633,0.6211642633707175
1499368364197,-0.18060578316929865,0.8086671244373234,0.6265354390783555
1499368364229,-0.17376974135957868,0.8125734340428776,0.6162813763637747
1499368364261,-0.17474631876096725,0.8125734340428776,0.6323949034866869
1499368364293,-0.17230487525749583,0.8257572289616233,0.6221408407721061
1499368364325,-0.17816433966582723,0.8086671244373234,0.5943083848325319
1499368364357,-0.18646524757763006,0.8096437018387119,0.6304417486839098
1499368364389,-0.1854886701762415,0.8145265888456548,0.6157930876630804
1499368364422,-0.16937514305333012,0.8096437018387119,0.6265354390783555
1499368364454,-0.16888685435263584,0.8081788357366291,0.6240939955748832
1499368364486,-0.1957427328908219,0.8169680323491262,0.6245822842755775
1499368364518,-0.1703517204547187,0.8076905470359348,0.6226291294728004
1499368364550,-0.18060578316929865,0.8135500114442662,0.6192111085679404
1499368364582,-0.18158236057068722,0.8169680323491262,0.6201876859693289
1499368364614,-0.19134813458457334,0.8189211871519033,0.6182345311665518
1499368364646,-0.1791409170672158,0.8120851453421833,0.6460669871061269
1499368364678,-0.1854886701762415,0.8179446097505148,0.6304417486839098
1499368364711,-0.17816433966582723,0.8145265888456548,0.6236057068741889
1499368364743,-0.18695353627832434,0.8106202792401005,0.6314183260852984
1499368364775,-0.18451209277485292,0.8018310826276034,0.6226291294728004
1499368364807,-0.17816433966582723,0.8194094758525976,0.6162813763637747
1499368364839,-0.17962920576791008,0.8155031662470433,0.6250705729762727
1499368364871,-0.18255893797207579,0.8159914549477376,0.6289768825818269
1499368364903,-0.18109407186999293,0.815014877546349,0.6343480582894641
1499368364935,-0.18011749446860437,0.8228274967574576,0.6392309452964069
1499368364967,-0.1893949797817962,0.8233157854581519,0.6558327611200125
1499368365000,-0.1923247119859619,0.8106202792401005,0.6192111085679404
1499368365032,-0.19037155718318477,0.8189211871519033,0.6250705729762727
1499368365064,-0.18255893797207579,0.8111085679407948,0.6367895017929355
1499368365096,-0.1820706492713815,0.8159914549477376,0.6182345311665518
1499368365128,-0.19085984588387905,0.8032959487296862,0.6421606775005726
1499368365160,-0.18793011367971335,0.8130617227435719,0.6280003051804384
1499368365192,-0.17718776226443866,0.8242923628595404,0.6460669871061269
1499368365224,-0.18060578316929865,0.8159914549477376,0.6387426565957126
1499368365256,-0.17962920576791008,0.8067139696345462,0.6280003051804384
1499368365289,-0.16644541084916442,0.8013427939269091,0.6192111085679404
1499368365321,-0.18402380407415864,0.7969481956206605,0.6221408407721061
1499368365353,-0.18255893797207579,0.8135500114442662,0.6284885938811327
1499368365385,-0.18255893797207579,0.7974364843213548,0.6367895017929355
1499368365417,-0.1923247119859619,0.8120851453421833,0.6284885938811327
1499368365449,-0.19085984588387905,0.8120851453421833,0.625558861676967
1499368365481,-0.1791409170672158,0.8096437018387119,0.6294651712825212
1499368365513,-0.17962920576791008,0.8062256809338519,0.6231174181734946
1499368365545,-0.19378957808804476,0.7906004425116349,0.596261539635309
1499368365578,-0.19183642328526762,0.8047608148317691,0.6338597695887698
1499368365610,-0.19037155718318477,0.7906004425116349,0.6348363469901583
1499368365642,-0.18646524757763006,0.8101319905394062,0.6240939955748832
1499368365674,-0.19671931029221046,0.8159914549477376,0.6421606775005726
1499368365706,-0.18890669108110192,0.8052491035324634,0.6275120164797441
1499368365738,-0.18695353627832434,0.8159914549477376,0.6524147402151526
1499368365770,-0.19085984588387905,0.8042725261310748,0.6314183260852984
1499368365802,-0.18988326848249049,0.8072022583352405,0.6441138323033497
1499368365834,-0.19134813458457334,0.8086671244373234,0.6319066147859926
1499368365866,-0.18793011367971335,0.8115968566414891,0.6275120164797441
1499368365898,-0.18451209277485292,0.8096437018387119,0.6211642633707175
1499368365931,-0.19623102159151617,0.8023193713282977,0.6216525520714118
1499368365963,-0.18988326848249049,0.7969481956206605,0.6358129243915469
1499368365995,-0.19183642328526762,0.8155031662470433,0.6333714808880755
1499368366027,-0.18793011367971335,0.7984130617227434,0.6348363469901583
1499368366059,-0.18744182497901862,0.8096437018387119,0.6309300373846041
1499368366091,-0.18744182497901862,0.8037842374303805,0.6382543678950183
1499368366123,-0.18890669108110192,0.8155031662470433,0.644602121004044
1499368366155,-0.18060578316929865,0.8135500114442662,0.6323949034866869
1499368366187,-0.18011749446860437,0.8213626306553747,0.6533913176165411
1499368366220,-0.19671931029221046,0.8174563210498205,0.6558327611200125
1499368366252,-0.1928130006866562,0.7945067521171891,0.6372777904936298
1499368366284,-0.18402380407415864,0.799389639124132,0.6382543678950183
1499368366316,-0.1928130006866562,0.8106202792401005,0.6319066147859926
1499368366348,-0.19427786678873904,0.8062256809338519,0.6353246356908526
1499368366380,-0.18597695887693577,0.7989013504234377,0.6128633554589147
1499368366412,-0.20062561989776473,0.8096437018387119,0.651438162813764
1499368366444,-0.1923247119859619,0.8169680323491262,0.6485084306095983
1499368366476,-0.19183642328526762,0.8208743419546805,0.6245822842755775
1499368366509,-0.18646524757763006,0.8130617227435719,0.6319066147859926
1499368366541,-0.18646524757763006,0.8081788357366291,0.6319066147859926
1499368366573,-0.18353551537346435,0.8267338063630119,0.6231174181734946
1499368366605,-0.1981841763942933,0.8037842374303805,0.6284885938811327
1499368366637,-0.18597695887693577,0.8169680323491262,0.6294651712825212
1499368366669,-0.18695353627832434,0.8125734340428776,0.6216525520714118
1499368366701,-0.1986724650949876,0.8013427939269091,0.6323949034866869
1499368366733,-0.19378957808804476,0.8111085679407948,0.6304417486839098
1499368366765,-0.1850003814755472,0.8072022583352405,0.6236057068741889
1499368366797,-0.18597695887693577,0.8018310826276034,0.6016327153429462
1499368366830,-0.19476615548943332,0.8120851453421833,0.6084687571526661
1499368366862,-0.19720759899290474,0.8018310826276034,0.6089570458533604
1499368366894,-0.1854886701762415,0.8120851453421833,0.6113984893568318
1499368366926,-0.18744182497901862,0.8145265888456548,0.644602121004044
1499368366958,-0.18402380407415864,0.8135500114442662,0.6196993972686347
1499368366990,-0.18158236057068722,0.8086671244373234,0.6172579537651632
1499368367023,-0.18841840238040763,0.815014877546349,0.6196993972686347
1499368367055,-0.18060578316929865,0.8032959487296862,0.6289768825818269
1499368367087,-0.18744182497901862,0.8106202792401005,0.6138399328603033
1499368367119,-0.18255893797207579,0.8213626306553747,0.6172579537651632
1499368367151,-0.17816433966582723,0.8125734340428776,0.6250705729762727
1499368367183,-0.18793011367971335,0.815014877546349,0.6275120164797441
1499368367215,-0.18255893797207579,0.8159914549477376,0.6294651712825212
1499368367247,-0.19476615548943332,0.8032959487296862,0.6138399328603033
1499368367279,-0.18011749446860437,0.8140383001449605,0.6284885938811327
1499368367312,-0.17865262836652152,0.8135500114442662,0.6060273136491947
1499368367344,-0.17962920576791008,0.8223392080567633,0.6192111085679404
1499368367376,-0.1757228961623558,0.8125734340428776,0.613351644159609
1499368367408,-0.18744182497901862,0.8081788357366291,0.6016327153429462
1499368367440,-0.19085984588387905,0.8159914549477376,0.6089570458533604
1499368367472,-0.1854886701762415,0.7940184634164948,0.6109102006561375
1499368367504,-0.17181658655680154,0.8115968566414891,0.6245822842755775
1499368367536,-0.17132829785610726,0.8262455176623176,0.6250705729762727
1499368367568,-0.19134813458457334,0.815014877546349,0.6035858701457233
1499368367601,-0.1732814526588844,0.8262455176623176,0.6153047989623861
1499368367633,-0.18060578316929865,0.8096437018387119,0.6172579537651632
1499368367665,-0.18060578316929865,0.8140383001449605,0.6192111085679404
1499368367697,-0.18255893797207579,0.8140383001449605,0.6074921797512776
1499368367729,-0.17474631876096725,0.8169680323491262,0.6231174181734946
1499368367761,-0.18353551537346435,0.8179446097505148,0.6192111085679404
1499368367793,-0.17718776226443866,0.8203860532539862,0.616769665064469
1499368367825,-0.18158236057068722,0.8306401159685661,0.6280003051804384
1499368367857,-0.16839856565194156,0.8057373922331577,0.6196993972686347
1499368367890,-0.18060578316929865,0.825268940260929,0.6143282215609975
1499368367922,-0.17767605096513295,0.8076905470359348,0.599679560540169
1499368367954,-0.17181658655680154,0.8277103837644004,0.6138399328603033
1499368367986,-0.18011749446860437,0.8101319905394062,0.6201876859693289
1499368368018,-0.18304722667277007,0.8072022583352405,0.5982146944380862
1499368368050,-0.18255893797207579,0.8111085679407948,0.6128633554589147
1499368368082,-0.18353551537346435,0.7984130617227434,0.6172579537651632
1499368368114,-0.17425803006027296,0.8111085679407948,0.6216525520714118
1499368368146,-0.18011749446860437,0.8311284046692604,0.6109102006561375
1499368368179,-0.17816433966582723,0.8115968566414891,0.6196993972686347
1499368368211,-0.17181658655680154,0.8272220950637061,0.6216525520714118
1499368368243,-0.1727931639581901,0.8018310826276034,0.6236057068741889
1499368368275,-0.18646524757763006,0.8174563210498205,0.6157930876630804
1499368368307,-0.18158236057068722,0.8208743419546805,0.616769665064469
1499368368339,-0.1952544441901276,0.8169680323491262,0.6240939955748832
1499368368371,-0.1854886701762415,0.8179446097505148,0.6250705729762727
1499368368403,-0.18255893797207579,0.8120851453421833,0.6236057068741889
1499368368435,-0.1791409170672158,0.8228274967574576,0.6172579537651632
1499368368468,-0.18451209277485292,0.8076905470359348,0.6216525520714118
1499368368500,-0.1703517204547187,0.815014877546349,0.6270237277790498
1499368368532,-0.18304722667277007,0.8047608148317691,0.6431372549019612
1499368368564,-0.1727931639581901,0.8228274967574576,0.6309300373846041
1499368368596,-0.17718776226443866,0.802807660028992,0.6055390249485004
1499368368628,-0.1854886701762415,0.8032959487296862,0.6055390249485004
1499368368660,-0.18451209277485292,0.8115968566414891,0.6319066147859926
1499368368692,-0.18158236057068722,0.7930418860151063,0.6157930876630804
1499368368724,-0.17718776226443866,0.8135500114442662,0.6148165102616918
1499368368757,-0.18890669108110192,0.8238040741588462,0.6157930876630804
1499368368789,-0.18060578316929865,0.8067139696345462,0.6211642633707175
1499368368821,-0.17523460746166153,0.8076905470359348,0.6309300373846041
1499368368853,-0.18255893797207579,0.7998779278248263,0.6270237277790498
1499368368885,-0.1928130006866562,0.8013427939269091,0.6206759746700232
1499368368917,-0.1727931639581901,0.8164797436484319,0.6284885938811327
1499368368949,-0.18646524757763006,0.8042725261310748,0.6348363469901583
1499368368981,-0.17865262836652152,0.8120851453421833,0.6314183260852984
1499368369013,-0.19085984588387905,0.8155031662470433,0.6348363469901583
1499368369046,-0.18451209277485292,0.7935301747158006,0.654856183718624
1499368369078,-0.1791409170672158,0.8125734340428776,0.6280003051804384
1499368369110,-0.18841840238040763,0.8174563210498205,0.6338597695887698
1499368369142,-0.19183642328526762,0.7969481956206605,0.6275120164797441
1499368369174,-0.18402380407415864,0.8174563210498205,0.6289768825818269
1499368369206,-0.1893949797817962,0.7984130617227434,0.6177462424658575
1499368369238,-0.19183642328526762,0.8086671244373234,0.6284885938811327
1499368369270,-0.18744182497901862,0.802807660028992,0.6172579537651632
1499368369302,-0.1928130006866562,0.7940184634164948,0.6299534599832155
1499368369334,-0.19037155718318477,0.8111085679407948,0.637766079194324
1499368369367,-0.18353551537346435,0.8125734340428776,0.6314183260852984
1499368369399,-0.18793011367971335,0.8023193713282977,0.6284885938811327
1499368369431,-0.1762111848630501,0.8086671244373234,0.6236057068741889
1499368369463,-0.18793011367971335,0.8106202792401005,0.6397192339971012
1499368369495,-0.19134813458457334,0.8013427939269091,0.6309300373846041
1499368369527,-0.19378957808804476,0.8106202792401005,0.6348363469901583
1499368369559,-0.18158236057068722,0.8179446097505148,0.6348363469901583
1499368369591,-0.19476615548943332,0.8008545052262148,0.6299534599832155
1499368369623,-0.1981841763942933,0.821850919356069,0.6382543678950183
1499368369655,-0.18646524757763006,0.8091554131380176,0.6294651712825212
1499368369688,-0.1952544441901276,0.8003662165255205,0.6397192339971012
1499368369720,-0.19476615548943332,0.8106202792401005,0.6343480582894641
1499368369752,-0.1820706492713815,0.8106202792401005,0.625558861676967
1499368369784,-0.18158236057068722,0.7998779278248263,0.637766079194324
1499368369816,-0.18695353627832434,0.8296635385671776,0.6284885938811327
1499368369848,-0.19916075379568188,0.8047608148317691,0.6289768825818269
1499368369880,-0.1928130006866562,0.7881589990081634,0.6045624475471119
1499368369912,-0.1981841763942933,0.8169680323491262,0.6270237277790498
1499368369944,-0.1928130006866562,0.795971618219272,0.6182345311665518
1499368369977,-0.20306706340123615,0.8125734340428776,0.6157930876630804
1499368370009,-0.18451209277485292,0.8111085679407948,0.6358129243915469
1499368370041,-0.19134813458457334,0.8081788357366291,0.6221408407721061
1499368370073,-0.19037155718318477,0.8057373922331577,0.6348363469901583
1499368370105,-0.19085984588387905,0.8042725261310748,0.6206759746700232
1499368370137,-0.19378957808804476,0.8008545052262148,0.6138399328603033
1499368370169,-0.18451209277485292,0.8008545052262148,0.6294651712825212
1499368370201,-0.18451209277485292,0.8106202792401005,0.6206759746700232
1499368370233,-0.1928130006866562,0.8018310826276034,0.641184100099184
1499368370266,-0.19037155718318477,0.8008545052262148,0.644602121004044
1499368370298,-0.19037155718318477,0.8067139696345462,0.6338597695887698
1499368370330,-0.1850003814755472,0.802807660028992,0.6441138323033497
1499368370362,-0.18255893797207579,0.8125734340428776,0.6280003051804384
1499368370394,-0.18402380407415864,0.799389639124132,0.6553444724193183
1499368370426,-0.17962920576791008,0.8052491035324634,0.6280003051804384
1499368370458,-0.19476615548943332,0.8086671244373234,0.6455786984054326
1499368370490,-0.1957427328908219,0.8086671244373234,0.6367895017929355
1499368370522,-0.18597695887693577,0.7984130617227434,0.6333714808880755
1499368370555,-0.18158236057068722,0.8057373922331577,0.6026092927443347
1499368370587,-0.20355535210193043,0.8047608148317691,0.6397192339971012
1499368370619,-0.19330128938735047,0.8194094758525976,0.6363012130922412
1499368370651,-0.1820706492713815,0.8062256809338519,0.6358129243915469
1499368370683,-0.18304722667277007,0.8091554131380176,0.6397192339971012
1499368370715,-0.18988326848249049,0.8179446097505148,0.6284885938811327
1499368370747,-0.19623102159151617,0.8008545052262148,0.6280003051804384
1499368370779,-0.18841840238040763,0.8106202792401005,0.6323949034866869
1499368370811,-0.1923247119859619,0.7964599069199663,0.6363012130922412
1499368370844,-0.19330128938735047,0.8086671244373234,0.637766079194324
1499368370876,-0.18890669108110192,0.8037842374303805,0.6372777904936298
1499368370908,-0.18060578316929865,0.8145265888456548,0.6196993972686347
1499368370940,-0.19183642328526762,0.8091554131380176,0.6221408407721061
1499368370972,-0.18646524757763006,0.8042725261310748,0.6240939955748832
1499368371004,-0.19037155718318477,0.8155031662470433,0.6162813763637747
1499368371036,-0.18841840238040763,0.8023193713282977,0.6309300373846041
1499368371068,-0.1820706492713815,0.8208743419546805,0.6192111085679404
1499368371101,-0.1850003814755472,0.802807660028992,0.6250705729762727
1499368371133,-0.19134813458457334,0.8238040741588462,0.6196993972686347
1499368371165,-0.1820706492713815,0.8169680323491262,0.596261539635309
1499368371197,-0.17962920576791008,0.8091554131380176,0.6231174181734946
1499368371229,-0.19671931029221046,0.8057373922331577,0.6231174181734946
1499368371261,-0.18695353627832434,0.815014877546349,0.6070038910505833
1499368371293,-0.17767605096513295,0.8179446097505148,0.6265354390783555
1499368371325,-0.18353551537346435,0.8179446097505148,0.6221408407721061
1499368371357,-0.18402380407415864,0.8057373922331577,0.6196993972686347
1499368371390,-0.18402380407415864,0.8086671244373234,0.6216525520714118
1499368371422,-0.18597695887693577,0.7906004425116349,0.6006561379415576
1499368371454,-0.17181658655680154,0.8169680323491262,0.6153047989623861
1499368371486,-0.18890669108110192,0.825268940260929,0.6113984893568318
1499368371518,-0.1923247119859619,0.8155031662470433,0.6367895017929355
1499368371550,-0.18744182497901862,0.8257572289616233,0.6206759746700232
1499368371582,-0.17962920576791008,0.8101319905394062,0.6201876859693289
1499368371614,-0.17767605096513295,0.8155031662470433,0.6221408407721061
1499368371646,-0.18402380407415864,0.8233157854581519,0.6157930876630804
1499368371679,-0.1820706492713815,0.8164797436484319,0.6128633554589147
1499368371711,-0.17523460746166153,0.8096437018387119,0.6123750667582204
1499368371743,-0.1762111848630501,0.825268940260929,0.6055390249485004
1499368371775,-0.17718776226443866,0.8086671244373234,0.6309300373846041
1499368371807,-0.17767605096513295,0.8311284046692604,0.6270237277790498
1499368371839,-0.1923247119859619,0.8247806515602347,0.6343480582894641
1499368371871,-0.1791409170672158,0.8120851453421833,0.6216525520714118
1499368371903,-0.16937514305333012,0.8203860532539862,0.6162813763637747
1499368371935,-0.18158236057068722,0.8257572289616233,0.6157930876630804
1499368371968,-0.18695353627832434,0.8096437018387119,0.6221408407721061
1499368372000,-0.19476615548943332,0.8052491035324634,0.6372777904936298
1499368372032,-0.1850003814755472,0.8125734340428776,0.6172579537651632
1499368372064,-0.18255893797207579,0.8296635385671776,0.6587624933241782
1499368372096,-0.18890669108110192,0.8155031662470433,0.6201876859693289
1499368372128,-0.18695353627832434,0.8086671244373234,0.6216525520714118
1499368372160,-0.18158236057068722,0.8111085679407948,0.6304417486839098
1499368372192,-0.1957427328908219,0.8091554131380176,0.6367895017929355
1499368372224,-0.19085984588387905,0.8076905470359348,0.6314183260852984
1499368372257,-0.18109407186999293,0.8140383001449605,0.6270237277790498
1499368372289,-0.18304722667277007,0.8081788357366291,0.6294651712825212
1499368372321,-0.18158236057068722,0.8023193713282977,0.6309300373846041
1499368372353,-0.19427786678873904,0.818432898451209,0.6372777904936298
1499368372385,-0.18255893797207579,0.8067139696345462,0.6489967193102926
1499368372417,-0.18109407186999293,0.8120851453421833,0.6211642633707175
1499368372449,-0.18988326848249049,0.8042725261310748,0.6201876859693289
1499368372481,-0.19378957808804476,0.7989013504234377,0.6284885938811327
1499368372513,-0.19476615548943332,0.8135500114442662,0.6250705729762727
1499368372546,-0.18011749446860437,0.8047608148317691,0.6323949034866869
1499368372578,-0.18060578316929865,0.8008545052262148,0.6397192339971012
1499368372610,-0.19330128938735047,0.802807660028992,0.6236057068741889
1499368372642,-0.1952544441901276,0.8047608148317691,0.6358129243915469
1499368372674,-0.18597695887693577,0.8057373922331577,0.6475318532082097
1499368372706,-0.20062561989776473,0.8169680323491262,0.6104219119554433
1499368372738,-0.17181658655680154,0.8047608148317691,0.6177462424658575
1499368372770,-0.20550850690470757,0.7984130617227434,0.6245822842755775
1499368372802,-0.18353551537346435,0.8164797436484319,0.6363012130922412
1499368372835,-0.18695353627832434,0.7949950408178834,0.6275120164797441
1499368372867,-0.18011749446860437,0.8111085679407948,0.625558861676967
1499368372899,-0.18744182497901862,0.8076905470359348,0.6265354390783555
1499368372931,-0.19134813458457334,0.8032959487296862,0.6172579537651632
1499368372963,-0.18695353627832434,0.8086671244373234,0.6177462424658575
1499368372995,-0.1952544441901276,0.8091554131380176,0.641184100099184
1499368373027,-0.18451209277485292,0.795971618219272,0.6494850080109869
1499368373059,-0.19769588769359903,0.8096437018387119,0.6216525520714118
1499368373091,-0.18890669108110192,0.8042725261310748,0.6494850080109869
1499368373124,-0.19085984588387905,0.7866941329060806,0.6211642633707175
1499368373156,-0.20013733119707044,0.8091554131380176,0.6284885938811327
1499368373188,-0.1957427328908219,0.8159914549477376,0.6436255436026554
1499368373220,-0.19037155718318477,0.8008545052262148,0.6070038910505833
1499368373252,-0.19476615548943332,0.8120851453421833,0.6392309452964069
1499368373284,-0.19183642328526762,0.8086671244373234,0.6294651712825212
1499368373316,-0.2016021972991533,0.8052491035324634,0.648020141908904
1499368373348,-0.1928130006866562,0.8037842374303805,0.6406958113984897
1499368373380,-0.19769588769359903,0.8032959487296862,0.6216525520714118
1499368373413,-0.1981841763942933,0.815014877546349,0.6441138323033497
1499368373445,-0.19720759899290474,0.8003662165255205,0.6426489662012669
1499368373477,-0.19427786678873904,0.7901121538109406,0.6348363469901583
1499368373509,-0.18793011367971335,0.8062256809338519,0.637766079194324
1499368373541,-0.17865262836652152,0.8003662165255205,0.6338597695887698
1499368373573,-0.19134813458457334,0.7984130617227434,0.6348363469901583
1499368373605,-0.18109407186999293,0.8013427939269091,0.6343480582894641
1499368373637,-0.18890669108110192,0.8076905470359348,0.6489967193102926
1499368373669,-0.1923247119859619,0.8145265888456548,0.637766079194324
1499368373702,-0.18060578316929865,0.815014877546349,0.625558861676967
1499368373734,-0.201113908598459,0.8189211871519033,0.6465552758068212
1499368373766,-0.1952544441901276,0.7896238651102463,0.6382543678950183
1499368373798,-0.1820706492713815,0.8013427939269091,0.6431372549019612
1499368373830,-0.18793011367971335,0.7974364843213548,0.6314183260852984
1499368373862,-0.1986724650949876,0.8052491035324634,0.6367895017929355
1499368373894,-0.19134813458457334,0.8013427939269091,0.6533913176165411
1499368373926,-0.19623102159151617,0.7930418860151063,0.6431372549019612
1499368373958,-0.18353551537346435,0.8086671244373234,0.658274204623484
1499368373990,-0.18890669108110192,0.8067139696345462,0.6489967193102926
1499368374023,-0.19183642328526762,0.7920653086137177,0.6509498741130697
1499368374055,-0.1923247119859619,0.802807660028992,0.6465552758068212
1499368374087,-0.18793011367971335,0.8042725261310748,0.6485084306095983
1499368374119,-0.1923247119859619,0.8062256809338519,0.6382543678950183
1499368374151,-0.19427786678873904,0.7974364843213548,0.6504615854123754
1499368374183,-0.18890669108110192,0.8003662165255205,0.6392309452964069
1499368374215,-0.19476615548943332,0.7930418860151063,0.6172579537651632
1499368374247,-0.19037155718318477,0.8018310826276034,0.625558861676967
1499368374279,-0.19183642328526762,0.8042725261310748,0.6289768825818269
1499368374312,-0.18841840238040763,0.8023193713282977,0.6182345311665518
1499368374344,-0.19769588769359903,0.8072022583352405,0.6245822842755775
1499368374376,-0.1986724650949876,0.8008545052262148,0.6309300373846041
1499368374408,-0.18646524757763006,0.8023193713282977,0.6426489662012669
1499368374440,-0.18402380407415864,0.8111085679407948,0.6323949034866869
1499368374472,-0.17962920576791008,0.799389639124132,0.6392309452964069
1499368374504,-0.18451209277485292,0.7969481956206605,0.6294651712825212
1499368374536,-0.19671931029221046,0.8042725261310748,0.6372777904936298
1499368374568,-0.1986724650949876,0.7974364843213548,0.599679560540169
1499368374601,-0.18304722667277007,0.8062256809338519,0.637766079194324
1499368374633,-0.18793011367971335,0.8067139696345462,0.6382543678950183
1499368374665,-0.18988326848249049,0.8140383001449605,0.637766079194324
1499368374697,-0.18255893797207579,0.8106202792401005,0.6319066147859926
1499368374729,-0.1893949797817962,0.8037842374303805,0.6392309452964069
1499368374761,-0.18255893797207579,0.8111085679407948,0.6367895017929355
1499368374793,-0.18793011367971335,0.8086671244373234,0.6348363469901583
1499368374825,-0.18841840238040763,0.8091554131380176,0.6196993972686347
1499368374857,-0.18646524757763006,0.8159914549477376,0.6323949034866869
1499368374889,-0.18353551537346435,0.8106202792401005,0.625558861676967
1499368374921,-0.18353551537346435,0.8096437018387119,0.6363012130922412
1499368374954,-0.18011749446860437,0.8169680323491262,0.6216525520714118
1499368374986,-0.19037155718318477,0.8042725261310748,0.6226291294728004
1499368375018,-0.1820706492713815,0.8125734340428776,0.6153047989623861
1499368375050,-0.17425803006027296,0.815014877546349,0.6221408407721061
1499368375082,-0.19037155718318477,0.8057373922331577,0.6358129243915469
1499368375114,-0.1762111848630501,0.8179446097505148,0.6304417486839098
1499368375146,-0.18060578316929865,0.8008545052262148,0.6323949034866869
1499368375178,-0.18304722667277007,0.8120851453421833,0.5952849622339205
1499368375210,-0.18060578316929865,0.8067139696345462,0.6226291294728004
1499368375243,-0.18109407186999293,0.8164797436484319,0.6236057068741889
1499368375275,-0.18646524757763006,0.8174563210498205,0.6363012130922412
1499368375307,-0.18060578316929865,0.8174563210498205,0.6206759746700232
1499368375339,-0.18646524757763006,0.8135500114442662,0.6192111085679404
1499368375371,-0.1854886701762415,0.8076905470359348,0.6372777904936298
1499368375403,-0.17718776226443866,0.8223392080567633,0.6128633554589147
1499368375435,-0.17767605096513295,0.815014877546349,0.6280003051804384
1499368375467,-0.18744182497901862,0.8159914549477376,0.606515602349889
1499368375499,-0.17816433966582723,0.8062256809338519,0.6284885938811327
1499368375532,-0.17669947356374438,0.8159914549477376,0.6045624475471119
1499368375564,-0.17230487525749583,0.8037842374303805,0.5904020752269776
1499368375596,-0.17962920576791008,0.7974364843213548,0.6309300373846041
1499368375628,-0.17962920576791008,0.8174563210498205,0.6216525520714118
1499368375660,-0.1791409170672158,0.8233157854581519,0.6206759746700232
1499368375692,-0.1727931639581901,0.8174563210498205,0.6026092927443347
1499368375724,-0.1762111848630501,0.8135500114442662,0.6294651712825212
1499368375756,-0.1727931639581901,0.8106202792401005,0.6358129243915469
1499368375788,-0.1732814526588844,0.7998779278248263,0.6138399328603033
1499368375821,-0.17523460746166153,0.8111085679407948,0.6289768825818269
1499368375853,-0.1820706492713815,0.8262455176623176,0.6245822842755775
1499368375885,-0.17767605096513295,0.8164797436484319,0.6284885938811327
1499368375917,-0.17962920576791008,0.825268940260929,0.6304417486839098
1499368375949,-0.18060578316929865,0.8115968566414891,0.6231174181734946
1499368375981,-0.18304722667277007,0.8111085679407948,0.6309300373846041
1499368376013,-0.18402380407415864,0.8135500114442662,0.609933623254749
1499368376046,-0.17230487525749583,0.8208743419546805,0.6294651712825212
1499368376078,-0.17132829785610726,0.8223392080567633,0.6265354390783555
1499368376110,-0.1757228961623558,0.8189211871519033,0.6172579537651632
1499368376142,-0.17474631876096725,0.8281986724650947,0.625558861676967
1499368376174,-0.17523460746166153,0.821850919356069,0.6509498741130697
1499368376206,-0.17376974135957868,0.7920653086137177,0.6192111085679404
1499368376238,-0.164003967345693,0.8267338063630119,0.6201876859693289
1499368376270,-0.17962920576791008,0.8208743419546805,0.6206759746700232
1499368376302,-0.1703517204547187,0.8155031662470433,0.6275120164797441
1499368376335,-0.1727931639581901,0.8145265888456548,0.6060273136491947
1499368376367,-0.18255893797207579,0.8018310826276034,0.6299534599832155
1499368376399,-0.16644541084916442,0.825268940260929,0.6280003051804384
1499368376431,-0.1703517204547187,0.8037842374303805,0.6177462424658575
1499368376463,-0.18060578316929865,0.8213626306553747,0.6299534599832155
1499368376495,-0.18158236057068722,0.8159914549477376,0.6289768825818269
1499368376527,-0.1732814526588844,0.8140383001449605,0.6221408407721061
1499368376559,-0.17523460746166153,0.815014877546349,0.613351644159609
1499368376591,-0.18353551537346435,0.8091554131380176,0.6284885938811327
1499368376624,-0.16839856565194156,0.8145265888456548,0.6148165102616918
1499368376656,-0.18158236057068722,0.802807660028992,0.6250705729762727
1499368376688,-0.1854886701762415,0.8238040741588462,0.625558861676967
1499368376720,-0.1762111848630501,0.8159914549477376,0.6363012130922412
1499368376752,-0.18402380407415864,0.8125734340428776,0.6001678492408633
1499368376784,-0.18793011367971335,0.8125734340428776,0.6304417486839098
1499368376816,-0.17865262836652152,0.818432898451209,0.6055390249485004
1499368376848,-0.17132829785610726,0.8115968566414891,0.6382543678950183
1499368376880,-0.18646524757763006,0.8208743419546805,0.6265354390783555
1499368376913,-0.17523460746166153,0.8115968566414891,0.6192111085679404
1499368376945,-0.1762111848630501,0.8018310826276034,0.6275120164797441
1499368376977,-0.18646524757763006,0.8101319905394062,0.6162813763637747
1499368377009,-0.17474631876096725,0.821850919356069,0.6192111085679404
1499368377041,-0.18695353627832434,0.8135500114442662,0.6338597695887698
1499368377073,-0.16937514305333012,0.795971618219272,0.6363012130922412
1499368377105,-0.18402380407415864,0.815014877546349,0.6338597695887698
1499368377137,-0.18744182497901862,0.8057373922331577,0.6387426565957126
1499368377169,-0.18011749446860437,0.8096437018387119,0.6299534599832155
1499368377201,-0.18353551537346435,0.8198977645532919,0.6358129243915469
1499368377234,-0.19085984588387905,0.8018310826276034,0.625558861676967
1499368377266,-0.17523460746166153,0.8067139696345462,0.6406958113984897
1499368377298,-0.18304722667277007,0.8032959487296862,0.625558861676967
1499368377330,-0.18109407186999293,0.818432898451209,0.6455786984054326
1499368377362,-0.18304722667277007,0.8091554131380176,0.6128633554589147
1499368377394,-0.20062561989776473,0.8018310826276034,0.6421606775005726
1499368377426,-0.17669947356374438,0.8198977645532919,0.6265354390783555
1499368377458,-0.17718776226443866,0.8018310826276034,0.6441138323033497
1499368377491,-0.19134813458457334,0.8072022583352405,0.6338597695887698
1499368377523,-0.18597695887693577,0.8062256809338519,0.6309300373846041
1499368377555,-0.1893949797817962,0.7989013504234377,0.6372777904936298
1499368377587,-0.18109407186999293,0.8096437018387119,0.6280003051804384
1499368377619,-0.19720759899290474,0.8169680323491262,0.6592507820248725
1499368377651,-0.1923247119859619,0.8174563210498205,0.641184100099184
1499368377683,-0.19037155718318477,0.8042725261310748,0.6426489662012669
1499368377715,-0.19671931029221046,0.8013427939269091,0.6416723887998783
1499368377747,-0.18402380407415864,0.8203860532539862,0.6499732967116811
1499368377779,-0.1893949797817962,0.7915770199130234,0.6524147402151526
1499368377812,-0.18744182497901862,0.8013427939269091,0.6265354390783555
1499368377844,-0.18353551537346435,0.7949950408178834,0.6372777904936298
1499368377876,-0.20502021820401328,0.8125734340428776,0.6382543678950183
1499368377908,-0.18988326848249049,0.8115968566414891,0.6323949034866869
1499368377940,-0.19330128938735047,0.8057373922331577,0.637766079194324
1499368377972,-0.20306706340123615,0.799389639124132,0.6079804684519718
1499368378004,-0.1928130006866562,0.8013427939269091,0.6367895017929355
1499368378036,-0.20257877470054186,0.7779049362935835,0.6367895017929355
1499368378068,-0.19720759899290474,0.8042725261310748,0.6284885938811327
1499368378101,-0.1791409170672158,0.8047608148317691,0.6309300373846041
1499368378133,-0.19085984588387905,0.8008545052262148,0.6270237277790498
1499368378165,-0.18841840238040763,0.8013427939269091,0.6333714808880755
1499368378197,-0.2016021972991533,0.8003662165255205,0.6431372549019612
1499368378229,-0.18695353627832434,0.7945067521171891,0.6094453345540547
1499368378261,-0.19183642328526762,0.8067139696345462,0.6450904097047383
1499368378293,-0.20013733119707044,0.8155031662470433,0.6431372549019612
1499368378325,-0.19476615548943332,0.8062256809338519,0.6441138323033497
1499368378357,-0.19671931029221046,0.7940184634164948,0.625558861676967
1499368378390,-0.1923247119859619,0.8062256809338519,0.6226291294728004
1499368378422,-0.18646524757763006,0.7915770199130234,0.6323949034866869
1499368378454,-0.2074616617074847,0.7954833295185777,0.6387426565957126
1499368378486,-0.19183642328526762,0.8072022583352405,0.6406958113984897
1499368378518,-0.19964904249637616,0.7920653086137177,0.6460669871061269
1499368378550,-0.19476615548943332,0.7998779278248263,0.6436255436026554
1499368378582,-0.1957427328908219,0.7964599069199663,0.6558327611200125
1499368378614,-0.20843823910887327,0.7969481956206605,0.6426489662012669
1499368378646,-0.1981841763942933,0.7871824216067749,0.6211642633707175
1499368378679,-0.20355535210193043,0.8023193713282977,0.6524147402151526
1499368378711,-0.19476615548943332,0.7935301747158006,0.6343480582894641
1499368378743,-0.19427786678873904,0.7945067521171891,0.6382543678950183
1499368378775,-0.1952544441901276,0.7998779278248263,0.651438162813764
1499368378807,-0.19623102159151617,0.7974364843213548,0.6416723887998783
1499368378839,-0.19671931029221046,0.7764400701915006,0.6343480582894641
