Timestamp (ms),Accel X (g),Accel Y (g),Accel Z (g)
1499369089782,0.8584725719081403,-0.18731975280384505,0.41388570992599405
1499369089798,0.8568856336308839,-0.18146028839551365,0.42572671091783043
1499369089814,0.8500495918211639,-0.18231479362172864,0.4303654535744261
1499369089830,0.8788586251621275,-0.18597695887693577,0.426703288319219
1499369089846,0.935622186617838,-0.20550850690470757,0.4057068741893648
1499369089862,0.9394064240482187,-0.20563057907988114,0.389715419241627
1499369089878,0.9335469596398873,-0.202822919050889,0.37238117036697904
1499369089894,0.9094987411306938,-0.2095368886854354,0.35846494239719195
1499369089910,0.9325703822384988,-0.20013733119707044,0.33588158999008133
1499369089926,0.952712291142138,-0.1885404745555812,0.32233157854581496
1499369089942,0.9591821164263372,-0.18927290760662263,0.3165941863126571
1499369089958,0.9419699397268637,-0.20001525902189687,0.30560769054703574
1499369089974,0.9369649805447473,-0.21136797131303897,0.30780498970016
1499369089990,0.9440451667048144,-0.21698329137102323,0.29083695735103365
1499369090006,0.9776150148775464,-0.21832608529793252,0.28375677119096654
1499369090022,0.9658960860608836,-0.2162508583199818,0.2871747920958265
1499369090038,0.96577401388571,-0.24335088120851456,0.28363469901579297
1499369090054,0.9147478446631574,-0.27020675974670016,0.2880292973220415
1499369090070,0.9085221637293053,-0.2960860608834972,0.3023117418173493
1499369090086,0.8982681010147253,-0.31586175326161614,0.3128099488822764
1499369090102,0.883009079118029,-0.315617608911269,0.3322194247348742
1499369090118,0.8722667277027538,-0.3107347219043257,0.3368581673914699
1499369090134,0.8875257495994511,-0.3053635461966886,0.33319600213626277
1499369090150,0.9033951323720153,-0.30780498970016,0.3218432898451207
1499369090166,0.906324864576181,-0.3202563515678647,0.3259937438010221
1499369090182,0.8772716868848711,-0.3302662699320975,0.32990005340657635
1499369090198,0.838941023880369,-0.3226977950713361,0.35590142671854696
1499369090214,0.8538338292515446,-0.3441824979018846,0.3344167238879985
1499369090230,0.9058365758754867,-0.3253833829251547,0.3124437323567557
1499369090246,0.8845960173952854,-0.3163500419623104,0.29925993743801005
1499369090262,0.894361791409171,-0.31146715495536714,0.3029221026932172
1499369090278,0.9062027924010074,-0.3023117418173493,0.31293202105745
1499369090294,0.9002212558175025,-0.317326619363699,0.3289234760051878
1499369090310,0.8803234912642104,-0.3294117647058825,0.3423514152742806
1499369090326,0.8853284504463268,-0.3412527656977189,0.3495536736095213
1499369090342,0.8924086366063939,-0.3395437552452889,0.35516899366750554
1499369090358,0.8849622339208061,-0.32550545510032824,0.3468680857557027
1499369090374,0.8832532234683761,-0.32501716639963396,0.3418631265735863
1499369090390,0.8781261921110861,-0.3307545586327918,0.3452811474784463
1499369090406,0.8819104295414668,-0.33307392996108964,0.33783474479285847
1499369090422,0.8828870069428554,-0.33636987869077606,0.33698023956664347
1499369090438,0.8859388113221947,-0.33270771343556893,0.3477225909819177
1499369090454,0.9010757610437174,-0.33636987869077606,0.3477225909819177
1499369090470,0.9010757610437174,-0.3252613107499811,0.3384451056687263
1499369090486,0.8908216983291375,-0.32806897077897323,0.3367360952162963
1499369090502,0.8823987182421611,-0.3331960021362632,0.3389333943694206
1499369090518,0.8717784390020595,-0.33221942473487465,0.3457694361791406
1499369090534,0.8872816052491039,-0.3383230334935532,0.35675593194476196
1499369090550,0.8946059357595182,-0.3386892500190739,0.344792858777752
1499369090566,0.8833752956435497,-0.33942168307011533,0.34345006485084273
1499369090582,0.8726329442282745,-0.34442664225223174,0.34088654917219774
1499369090598,0.8777599755855654,-0.34650186923018245,0.3402761882963299
1499369090614,0.8872816052491039,-0.3428397039749753,0.349919890135042
1499369090630,0.8930189974822618,-0.3331960021362632,0.35016403448538913
1499369090646,0.8832532234683761,-0.3366140230411232,0.340520332646677
1499369090662,0.8737315938048367,-0.3441824979018846,0.34210727092393345
1499369090678,0.8809338521400782,-0.3441824979018846,0.34467078660257844
1499369090694,0.8858167391470211,-0.3450370031280996,0.3428397039749749
1499369090710,0.8806897077897311,-0.34235141527428103,0.3451590753032727
1499369090726,0.879591058213169,-0.34772259098191816,0.341374837872892
1499369090742,0.8732433051041424,-0.35480277714198527,0.34345006485084273
1499369090758,0.8678721293965053,-0.35077439536125743,0.35345998321507555
1499369090774,0.8749523155565724,-0.34528114747844674,0.3535820553902491
1499369090790,0.8797131303883425,-0.3450370031280996,0.34625772487983486
1499369090806,0.8751964599069204,-0.354314488441291,0.3478446631570913
1499369090822,0.8692149233234145,-0.3618829633020524,0.349065384908827
1499369090838,0.8615243762874796,-0.3554131380178531,0.3515068284122984
1499369090854,0.8701915007248031,-0.3408865491721982,0.35516899366750554
1499369090870,0.883009079118029,-0.3403982604715039,0.35089646753643056
1499369090886,0.8802014190890368,-0.35321583886472885,0.3518730449378191
1499369090902,0.8765392538338297,-0.3529716945143817,0.3502861066605627
1499369090918,0.8809338521400782,-0.3521171892881667,0.34930952925917413
1499369090934,0.877027542534524,-0.3495536736095217,0.3468680857557027
1499369090950,0.8637216754406039,-0.34906538490882744,0.3495536736095213
1499369090966,0.8723887998779274,-0.35150682841229886,0.3497978179598684
1499369090982,0.8792248416876483,-0.3516289005874724,0.35053025101090984
1499369090998,0.8745860990310517,-0.35700007629510955,0.35223926146333984
1499369091014,0.8775158312352183,-0.35407034409094384,0.3515068284122984
1499369091030,0.8811779964904254,-0.35407034409094384,0.3519951171129927
1499369091046,0.8750743877317468,-0.34442664225223174,0.35138475623712484
1499369091063,0.8701915007248031,-0.34186312657358675,0.3485770962081327
1499369091079,0.8797131303883425,-0.34723430228122387,0.34711223010604986
1499369091095,0.8832532234683761,-0.35065232318608386,0.3532158388647284
1499369091111,0.8810559243152518,-0.356023498893721,0.3506523231860834
1499369091127,0.8729991607537952,-0.3546807049668117,0.3510185397116041
1499369091143,0.8727550164034481,-0.35443656061646456,0.3511406118867777
1499369091159,0.8765392538338297,-0.3495536736095217,0.3523613336385134
1499369091175,0.8762951094834825,-0.3476005188067446,0.3506523231860834
1499369091191,0.8762951094834825,-0.34979781795986886,0.34760051880674414
1499369091207,0.874219882505531,-0.35236133363851385,0.3504081788357363
1499369091223,0.8694590676737617,-0.35700007629510955,0.3486991683833063
1499369091239,0.8722667277027538,-0.35870908674753954,0.3485770962081327
1499369091255,0.869092851148241,-0.3493095292591746,0.3578545815213241
1499369091271,0.879591058213169,-0.34991989013504243,0.3582207980468448
1499369091287,0.8792248416876483,-0.349187457084001,0.35931944762340695
1499369091303,0.8771496147096975,-0.3488212405584803,0.3562676432440677
1499369091319,0.8849622339208061,-0.349187457084001,0.3461356527046613
1499369091335,0.879591058213169,-0.35321583886472885,0.34723430228122343
1499369091351,0.8710460059510181,-0.3579766536964981,0.35089646753643056
1499369091367,0.8664072632944224,-0.35700007629510955,0.3510185397116041
1499369091383,0.869947356374456,-0.35407034409094384,0.35675593194476196
1499369091399,0.8721446555275802,-0.34613565270466173,0.3554131380178527
1499369091415,0.8811779964904254,-0.3471122301060503,0.3523613336385134
1499369091431,0.8737315938048367,-0.35443656061646456,0.35602349889372054
1499369091447,0.8715342946517124,-0.35187304493781957,0.35638971541924125
1499369091463,0.880445563439384,-0.3513847562371253,0.3561455710688941
1499369091479,0.8788586251621275,-0.3524834058136874,0.353337911039902
1499369091495,0.871656366826886,-0.355168993667506,0.3616388189517048
1499369091511,0.8758068207827883,-0.3562676432440681,0.3585870145723655
1499369091527,0.8731212329289688,-0.35455863279163813,0.35468070496681126
1499369091543,0.867383840695811,-0.34723430228122387,0.35638971541924125
1499369091559,0.873365377279316,-0.34515907530327317,0.3545586327916377
1499369091575,0.8723887998779274,-0.3522392614633403,0.349065384908827
1499369091591,0.8675059128709846,-0.3521171892881667,0.3528496223392077
1499369091607,0.8711680781261917,-0.35700007629510955,0.35126268406195127
1499369091623,0.875318532082094,-0.3591973754482338,0.349065384908827
1499369091639,0.8748302433813988,-0.35492484931715884,0.35126268406195127
1499369091655,0.8567635614557103,-0.34735637445639744,0.34930952925917413
1499369091671,0.8510261692225525,-0.3373464560921646,0.34540321965361986
1499369091687,0.8439459830624854,-0.3411306935225453,0.3609063859006634
1499369091703,0.8893568322270546,-0.3504081788357367,0.3700617990386812
1499369091719,0.8869153887235832,-0.36749828336003665,0.38568703746089916
1499369091735,0.881300068665599,-0.3764095521477073,0.3913023575188834
1499369091751,0.8568856336308839,-0.3593194476234074,0.37738612954909634
1499369091767,0.8645761806668188,-0.34894331273365387,0.36652170595864764
1499369091783,0.8722667277027538,-0.33685816739147034,0.36444647898069693
1499369091799,0.8666514076447696,-0.34052033264667747,0.3687190051117719
1499369091815,0.871656366826886,-0.3504081788357367,0.37946135652704704
1499369091831,0.8697032120241088,-0.3593194476234074,0.3817807278553449
1499369091847,0.8688487067978938,-0.36127260242618453,0.38190280003051846
1499369091863,0.866529335469596,-0.3522392614633403,0.38068207827878275
1499369091879,0.8627450980392153,-0.34821087968261244,0.3705500877393755
1499369091895,0.8599374380102232,-0.35321583886472885,0.3657892729076062
1499369091911,0.862256809338521,-0.3495536736095217,0.3653009842069119
1499369091927,0.8655527580682074,-0.34735637445639744,0.36224917982757265
1499369091943,0.8664072632944224,-0.35199511711299314,0.3729915312428469
1499369091959,0.8653086137178603,-0.3562676432440681,0.37689784084840205
1499369091975,0.8688487067978938,-0.36041809719996953,0.3793392843518735
1499369091991,0.867383840695811,-0.3606622415503167,0.3808041504539563
1499369092007,0.8659189745937281,-0.35407034409094384,0.37860685130083205
1499369092023,0.8642099641412981,-0.351750972762646,0.37653162432288134
1499369092039,0.8549324788281067,-0.35236133363851385,0.37116044861524333
1499369092055,0.8594491493095289,-0.3501640344853896,0.3653009842069119
1499369092071,0.8688487067978938,-0.350041962310216,0.36859693293659834
1499369092087,0.8675059128709846,-0.35370412756542313,0.3716487373159376
1499369092103,0.8623788815136946,-0.3576104371709774,0.3793392843518735
1499369092119,0.8687266346227203,-0.3524834058136874,0.37811856260013776
1499369092135,0.8692149233234145,-0.35150682841229886,0.3738460364690619
1499369092151,0.867383840695811,-0.35272755016403456,0.3750667582207985
1499369092167,0.8686045624475467,-0.3495536736095217,0.38019378957808847
1499369092183,0.867383840695811,-0.34991989013504243,0.37982757305256776
1499369092199,0.8686045624475467,-0.3533379110399024,0.37738612954909634
1499369092215,0.8638437476157774,-0.35944151979858097,0.37482261387045046
1499369092231,0.8600595101853967,-0.3591973754482338,0.3767757686732285
1499369092247,0.8606698710612646,-0.3541924162661174,0.37689784084840205
1499369092263,0.8660410467689017,-0.3529716945143817,0.37640955214770777
1499369092279,0.866529335469596,-0.351750972762646,0.37653162432288134
1499369092295,0.8632333867399096,-0.351750972762646,0.3725032425421526
1499369092311,0.863111314564736,-0.3546807049668117,0.37518883039597206
1499369092327,0.8661631189440753,-0.35150682841229886,0.3742122529945826
1499369092343,0.860547798886091,-0.35199511711299314,0.37323567559319404
1499369092359,0.8640878919661246,-0.35565728236820027,0.37482261387045046
1499369092375,0.8587167162584874,-0.3493095292591746,0.3795834287022206
1499369092391,0.8668955519951167,-0.35565728236820027,0.38019378957808847
1499369092407,0.8604257267109174,-0.357732509346151,0.3779964904249642
1499369092423,0.8620126649881739,-0.3546807049668117,0.3788509956511792
1499369092439,0.8686045624475467,-0.3501640344853896,0.3795834287022206
1499369092456,0.8653086137178603,-0.3562676432440681,0.3822690165560392
1499369092472,0.8587167162584874,-0.35455863279163813,0.3792172121766999
1499369092488,0.8649423971923396,-0.3476005188067446,0.3709163042648962
1499369092504,0.868238345922026,-0.352605477988861,0.3792172121766999
1499369092520,0.867383840695811,-0.35150682841229886,0.37775234607461705
1499369092536,0.8653086137178603,-0.35870908674753954,0.3805600061036092
1499369092552,0.8638437476157774,-0.36078431372549025,0.38104829480430347
1499369092568,0.8516365300984203,-0.35956359197375454,0.38568703746089916
1499369092584,0.8574959945067517,-0.35700007629510955,0.38446631570916345
1499369092600,0.8561532005798425,-0.36127260242618453,0.3847104600595106
1499369092616,0.8546883344777596,-0.3588311589227131,0.38446631570916345
1499369092632,0.8568856336308839,-0.35565728236820027,0.3843442435339899
1499369092648,0.8589608606088346,-0.35651178759441526,0.38666361486228773
1499369092664,0.860547798886091,-0.3598077363241017,0.38361181048294846
1499369092680,0.8551766231784539,-0.36078431372549025,0.383733882658122
1499369092696,0.8574959945067517,-0.35992980849927525,0.38580910963607273
1499369092712,0.8606698710612646,-0.3596856641489281,0.38666361486228773
1499369092728,0.856275272755016,-0.35443656061646456,0.3860532539864199
1499369092744,0.8552986953536275,-0.34979781795986886,0.3822690165560392
1499369092760,0.8623788815136946,-0.35272755016403456,0.3864194705119406
1499369092776,0.8649423971923396,-0.35321583886472885,0.3859311818112463
1499369092792,0.862256809338521,-0.35480277714198527,0.38666361486228773
1499369092808,0.8659189745937281,-0.35492484931715884,0.3847104600595106
1499369092824,0.8584725719081403,-0.35748836499580383,0.38239108873121275
1499369092840,0.8585946440833139,-0.357732509346151,0.383733882658122
1499369092856,0.8584725719081403,-0.356878004119936,0.38495460440985774
1499369092872,0.8540779736018917,-0.35443656061646456,0.3859311818112463
1499369092888,0.8471198596169982,-0.3495536736095217,0.3884946974898913
1499369092904,0.8479743648432132,-0.3554131380178531,0.3898374914168006
1499369092920,0.8490730144197753,-0.3673762111848631,0.38690775921263487
1499369092936,0.8484626535439075,-0.3718928816662852,0.3779964904249642
1499369092952,0.8561532005798425,-0.34906538490882744,0.3750667582207985
1499369092968,0.8859388113221947,-0.33002212558175037,0.37482261387045046
1499369092984,0.8782482642862597,-0.3278248264286261,0.38031586175326204
1499369093000,0.8653086137178603,-0.33978789959563604,0.384588387884337
1499369093016,0.8651865415426867,-0.347478446631571,0.3875181200885027
1499369093032,0.8712901503013653,-0.3458915083543146,0.38825055313954415
1499369093048,0.8738536659800102,-0.3471122301060503,0.3934996566720077
1499369093064,0.8676279850461581,-0.34515907530327317,0.39325551232166056
1499369093080,0.8599374380102232,-0.3438162813763639,0.39154650186923057
1499369093096,0.8634775310902567,-0.34479285877775245,0.3851987487602049
1499369093112,0.8698252841992824,-0.34442664225223174,0.38483253223468417
1499369093128,0.8686045624475467,-0.3441824979018846,0.38532082093537845
1499369093144,0.8659189745937281,-0.34052033264667747,0.39032578011749486
1499369093160,0.8649423971923396,-0.3391775387197682,0.39154650186923057
1499369093176,0.8595712214847024,-0.33942168307011533,0.393987945372702
1499369093192,0.856275272755016,-0.3421072709239339,0.39288929579613985
1499369093208,0.8623788815136946,-0.3479667353322653,0.38959334706645343
1499369093224,0.8611581597619589,-0.34906538490882744,0.388006408789197
1499369093240,0.8531013962005032,-0.34442664225223174,0.38580910963607273
1499369093256,0.861402304112306,-0.34100862134737175,0.38825055313954415
1499369093272,0.8662851911192488,-0.3400320439459832,0.39044785229266843
1499369093288,0.8629892423895624,-0.3421072709239339,0.3893492027161063
1499369093304,0.8495613031204696,-0.3445487144274053,0.391424429694057
1499369093320,0.8531013962005032,-0.3446707866025789,0.3892271305409327
1499369093336,0.8565194171053632,-0.34699015793087673,0.390569924467842
1499369093352,0.8499275196459903,-0.3434500648508432,0.38410009918364274
1499369093368,0.8633554589150831,-0.34137483787289247,0.389715419241627
1499369093384,0.8765392538338297,-0.3353933012893875,0.3893492027161063
1499369093400,0.8771496147096975,-0.33466086823834607,0.39581902800030555
1499369093416,0.8616464484626531,-0.33307392996108964,0.3955748836499584
1499369093432,0.8612802319371324,-0.3306324864576182,0.39325551232166056
1499369093448,0.8655527580682074,-0.3295338368810561,0.3934996566720077
1499369093464,0.8572518501564046,-0.33295185778591607,0.39252307927061914
1499369093480,0.8637216754406039,-0.33392843518730464,0.39325551232166056
1499369093496,0.8748302433813988,-0.33893339436942105,0.3943541618982227
1499369093512,0.8686045624475467,-0.33807888914320605,0.39838254367895054
1499369093528,0.8650644693675131,-0.3383230334935532,0.395696955825132
1499369093544,0.8711680781261917,-0.33136491950865965,0.4003356984817277
1499369093560,0.8715342946517124,-0.31866941329060827,0.396551461051347
1499369093576,0.8719005111772331,-0.32550545510032824,0.3938658731975284
1499369093592,0.8687266346227203,-0.33221942473487465,0.39838254367895054
1499369093608,0.8706797894254974,-0.3336842908369575,0.39996948195620696
1499369093624,0.8727550164034481,-0.33173113603418036,0.4018005645838105
1499369093640,0.8744640268558781,-0.3297779812314032,0.4031433585107198
1499369093656,0.8736095216296631,-0.3303883421072711,0.3967956054016941
1499369093672,0.8544441901274125,-0.33380636301213107,0.3972838941023884
1499369093688,0.8581063553826196,-0.33844510566872676,0.39032578011749486
1499369093704,0.8479743648432132,-0.3493095292591746,0.397405966277562
1499369093720,0.8643320363164717,-0.34650186923018245,0.3927672236209663
1499369093736,0.8419928282597082,-0.34052033264667747,0.38702983138780844
1499369093752,0.8440680552376589,-0.314763103685054,0.39447623407339627
1499369093768,0.8678721293965053,-0.3148851758602276,0.39288929579613985
1499369093784,0.875318532082094,-0.29877164873731576,0.3917906462195777
1499369093800,0.8893568322270546,-0.28375677119096654,0.37360189211871475
1499369093816,0.9026626993209739,-0.2780193789578087,0.3662775616083005
1499369093832,0.8906996261539639,-0.2843671320668344,0.3705500877393755
1499369093848,0.8937514305333032,-0.29547570000762935,0.3771419851987492
1499369093864,0.896070801861601,-0.2995040817883572,0.3816586556801713
1499369093880,0.894361791409171,-0.28912794689860366,0.3860532539864199
1499369093896,0.8972915236133368,-0.29034866865033937,0.391424429694057
1499369093912,0.8816662851911197,-0.29584191653315006,0.3930113679713134
1499369093928,0.8739757381551838,-0.3031662470435643,0.390569924467842
1499369093945,0.860547798886091,-0.3040207522697793,0.3875181200885027
1499369093961,0.8650644693675131,-0.30438696879530003,0.38947127489127986
1499369093977,0.8693369954985881,-0.29925993743801005,0.393133440146487
1499369093993,0.8743419546807045,-0.29925993743801005,0.388860914015412
1499369094009,0.8666514076447696,-0.2926680399786372,0.3876401922636763
1499369094025,0.8679942015716788,-0.29034866865033937,0.38483253223468417
1499369094041,0.8738536659800102,-0.29718471046005934,0.38580910963607273
1499369094057,0.8760509651331354,-0.30634012359807716,0.3900816357671477
1499369094073,0.8679942015716788,-0.3081712062256807,0.39069199664301557
1499369094089,0.8623788815136946,-0.29755092698558006,0.3889829861905856
1499369094105,0.8759288929579618,-0.28155947203784226,0.3817807278553449
1499369094121,0.8820325017166404,-0.27655451285572585,0.3692072938124662
1499369094137,0.8364995803768975,-0.2842450598916608,0.38947127489127986
1499369094153,0.8750743877317468,-0.281925688563363,0.40167849240863696
1499369094169,0.9077897306782639,-0.2947432669565879,0.41303120469977905
1499369094185,0.9086442359044788,-0.30951400015259,0.42682536049439257
1499369094201,0.9005874723430232,-0.3045090409704736,0.41974517433432545
1499369094217,0.8928969253070882,-0.2957198443579765,0.3976501106279091
1499369094233,0.8944838635843446,-0.2826581216144044,0.39374380102235484
1499369094249,0.8894789044022282,-0.27911802853437084,0.39496452277409055
1499369094265,0.8814221408407725,-0.275944151979858,0.3919127183947513
1499369094281,0.879591058213169,-0.2780193789578087,0.3952086671244377
1499369094297,0.881300068665599,-0.28082703898680084,0.4014343480582898
1499369094313,0.8880140383001454,-0.28998245212481866,0.39923704890516554
1499369094329,0.8747081712062252,-0.2927901121538108,0.39533073929961127
1499369094345,0.8737315938048367,-0.2898603799496451,0.3960631723506527
1499369094361,0.8863050278477154,-0.2764324406805523,0.3934996566720077
1499369094377,0.8996108949416346,-0.27496757457846943,0.396551461051347
1499369094393,0.8902113374532696,-0.27997253376058584,0.40497444113832337
1499369094409,0.8803234912642104,-0.2860761425192644,0.40546272983901765
1499369094425,0.8775158312352183,-0.28290226596475154,0.4003356984817277
1499369094441,0.8843518730449382,-0.2831464103150987,0.40167849240863696
1499369094457,0.8791027695124747,-0.28546578164339653,0.39838254367895054
1499369094473,0.8815442130159461,-0.2852216372930494,0.3969176775768677
1499369094489,0.8848401617456325,-0.28204776073853655,0.40094605935759553
1499369094505,0.8802014190890368,-0.27496757457846943,0.3960631723506527
1499369094521,0.8854505226215004,-0.27606622415503157,0.3950865949492641
1499369094537,0.8773937590600447,-0.2814373998626687,0.4044861524376291
1499369094553,0.878736552986954,-0.28912794689860366,0.4055848020141912
1499369094569,0.8854505226215004,-0.2890058747234301,0.4010681315327691
1499369094585,0.8817883573662932,-0.2821698329137101,0.3989929045548184
1499369094601,0.8798352025635161,-0.275944151979858,0.3967956054016941
1499369094617,0.8740978103303574,-0.2700846875715266,0.39288929579613985
1499369094633,0.883863584344244,-0.2771648737315937,0.3960631723506527
1499369094649,0.8814221408407725,-0.2893720912489508,0.40289921416037267
1499369094665,0.8803234912642104,-0.28876173037308295,0.40668345159075336
1499369094681,0.8833752956435497,-0.280216678110933,0.4019226367589841
1499369094697,0.8715342946517124,-0.27228198672465087,0.4086366063935305
1499369094713,0.8749523155565724,-0.27789730678263513,0.40631723506523265
1499369094729,0.876173037308309,-0.2809491111619744,0.4041199359121084
1499369094745,0.8766613260090033,-0.2857099259937437,0.4053406576638441
1499369094761,0.869947356374456,-0.28656443121995867,0.4091248950942248
1499369094777,0.8777599755855654,-0.2781414511329823,0.40582894636453837
1499369094793,0.8841077286945911,-0.2730144197756923,0.41010147249561335
1499369094809,0.8847180895704589,-0.27203784237430373,0.4098573281452662
1499369094825,0.8916762035553525,-0.2805828946364537,0.4022888532845048
1499369094841,0.8900892652780961,-0.2944991226062408,0.389715419241627
1499369094857,0.832959487296864,-0.281925688563363,0.40802624551766264
1499369094873,0.8595712214847024,-0.2838788433661401,0.4079041733424891
1499369094889,0.8881361104753189,-0.2797283894102387,0.41010147249561335
1499369094905,0.8998550392919817,-0.275944151979858,0.40595101853971194
1499369094921,0.8860608834973682,-0.27692072938124657,0.38959334706645343
1499369094937,0.8833752956435497,-0.27789730678263513,0.37030594338902834
1499369094953,0.9055924315251396,-0.26068513008316163,0.36066224155031623
1499369094969,0.8855725947966739,-0.2705729762722209,0.4022888532845048
1499369094985,0.8463874265659568,-0.26520180056458376,0.4616159304188603
1499369095001,0.8783703364614333,-0.28754100862134724,0.4444037537193868
1499369095017,0.8939955748836503,-0.3023117418173493,0.4367132066834518
1499369095033,0.8881361104753189,-0.3053635461966886,0.41766994735637475
1499369095049,0.867383840695811,-0.29803921568627434,0.40497444113832337
1499369095065,0.8686045624475467,-0.2977950713359272,0.38483253223468417
1499369095081,0.8635996032654303,-0.27570000762951086,0.4039978637369348
1499369095097,0.8705577172503238,-0.2897383077744715,0.40497444113832337
1499369095113,0.8472419317921718,-0.3091477836270693,0.42096589608606116
1499369095129,0.8566414892805367,-0.3074387731746393,0.4270695048447397
1499369095145,0.8490730144197753,-0.32758068207827895,0.43744563973449324
1499369095161,0.8595712214847024,-0.32599374380102253,0.43610284580758396
1499369095177,0.864820325017166,-0.3228198672465097,0.4392767223620968
1499369095193,0.861402304112306,-0.3023117418173493,0.4317082475013354
1499369095209,0.8548104066529332,-0.28925001907377723,0.4236514839398797
1499369095225,0.8738536659800102,-0.2804608224612801,0.40595101853971194
1499369095241,0.875318532082094,-0.2877851529716944,0.40375371938658766
1499369095257,0.8611581597619589,-0.29413290608072007,0.4146181429770355
1499369095273,0.8430914778362704,-0.29510948348210864,0.42682536049439257
1499369095289,0.8498054474708168,-0.2894941634241244,0.4325627527275504
1499369095305,0.8600595101853967,-0.2766765850308994,0.4351262684061954
1499369095322,0.869092851148241,-0.27484550240329586,0.4347600518806747
1499369095338,0.8751964599069204,-0.2726482032501716,0.4263370717936983
1499369095354,0.8756847486076147,-0.2766765850308994,0.42560463874265686
1499369095370,0.8747081712062252,-0.28705271992065295,0.4265812161440454
1499369095386,0.8786144808117804,-0.2886396581979094,0.4312199588006411
1499369095402,0.8756847486076147,-0.28168154421301583,0.4346379797055011
1499369095418,0.8653086137178603,-0.2695963988708323,0.4329289692530711
1499369095434,0.8651865415426867,-0.2738689250019073,0.4263370717936983
1499369095450,0.875318532082094,-0.276798657206073,0.4234073395895326
1499369095466,0.8792248416876483,-0.2789959563591973,0.4236514839398797
1499369095482,0.8711680781261917,-0.2813153276874951,0.4245059891660947
1499369095498,0.8676279850461581,-0.2860761425192644,0.42523842221713615
1499369095514,0.863111314564736,-0.2813153276874951,0.43024338139925256
1499369095530,0.8736095216296631,-0.279362172884718,0.4242618448157476
1499369095546,0.8698252841992824,-0.28497749294270225,0.42316319523918544
1499369095562,0.8672617685206374,-0.2831464103150987,0.4175478751812012
1499369095578,0.8611581597619589,-0.2872968642710001,0.4220645456626233
1499369095594,0.8723887998779274,-0.28619821469443796,0.4195010299839783
1499369095610,0.8738536659800102,-0.2859540703440908,0.4262149996185247
1499369095626,0.880445563439384,-0.2797283894102387,0.42023346303501974
1499369095642,0.8766613260090033,-0.2678873884184023,0.41681544213015975
1499369095658,0.868238345922026,-0.2666666666666666,0.4221866178377969
1499369095674,0.8439459830624854,-0.2755779354543373,0.42865644312199613
1499369095690,0.8660410467689017,-0.2890058747234301,0.4199893186846726
1499369095706,0.8953383688105596,-0.2898603799496451,0.41815823605706903
1499369095722,0.8870374608987568,-0.2985275043869686,0.4225528343633176
1499369095738,0.8450446326390475,-0.2955977721828029,0.4347600518806747
1499369095754,0.861402304112306,-0.3023117418173493,0.44074158846417966
1499369095770,0.8628671702143889,-0.3028000305180436,0.4452582589456018
1499369095786,0.8551766231784539,-0.2910811017013808,0.44831006332494105
1499369095802,0.8538338292515446,-0.30096894789044004,0.42572671091783043
1499369095818,0.873365377279316,-0.2943770504310672,0.40875867856870407
1499369095834,0.8765392538338297,-0.28461127641718154,0.4048523689631498
1499369095850,0.881300068665599,-0.28168154421301583,0.40961318379491907
1499369095866,0.8805676356145575,-0.29120317387655437,0.4061951628900591
1499369095882,0.8720225833524067,-0.2797283894102387,0.40924696726939835
1499369095898,0.8565194171053632,-0.27496757457846943,0.4179140917067219
1499369095914,0.8538338292515446,-0.2877851529716944,0.4136415655756469
1499369095930,0.8781261921110861,-0.2977950713359272,0.4019226367589841
1499369095946,0.8919203479056996,-0.3032883192187379,0.39618524452582626
1499369095962,0.8925307087815675,-0.30353246356908503,0.3875181200885027
1499369095978,0.882154573891814,-0.2886396581979094,0.395696955825132
1499369095994,0.8574959945067517,-0.2868085755703058,0.40302128633554624
1499369096010,0.8581063553826196,-0.29010452429999223,0.41217669947356406
1499369096026,0.8711680781261917,-0.28912794689860366,0.40497444113832337
1499369096042,0.8866712443732361,-0.2943770504310672,0.3936217288471813
1499369096058,0.8723887998779274,-0.3107347219043257,0.3913023575188834
1499369096074,0.877882047760739,-0.3115892271305407,0.3834897383077749
1499369096090,0.8810559243152518,-0.31293202105745044,0.3754329747463192
1499369096106,0.8668955519951167,-0.2952315556572822,0.387151903562982
1499369096122,0.8756847486076147,-0.30182345311665504,0.3881284809643706
1499369096138,0.8850843060959797,-0.30341039139391146,0.3784847791256585
1499369096154,0.8932631418326089,-0.3045090409704736,0.3795834287022206
1499369096170,0.8834973678187232,-0.3037766079194322,0.3876401922636763
1499369096186,0.8900892652780961,-0.30853742275120144,0.38410009918364274
1499369096202,0.8916762035553525,-0.29755092698558006,0.38495460440985774
1499369096218,0.8841077286945911,-0.30060273136491933,0.38580910963607273
1499369096234,0.8839856565194175,-0.3045090409704736,0.38739604791332916
1499369096250,0.8798352025635161,-0.305241474021515,0.3967956054016941
1499369096266,0.8660410467689017,-0.2993820096131836,0.4024109254596784
1499369096282,0.8352788586251618,-0.2927901121538108,0.4251163500419626
1499369096298,0.8440680552376589,-0.30060273136491933,0.4367132066834518
1499369096314,0.9069352254520489,-0.308659494926375,0.4262149996185247
1499369096330,0.8900892652780961,-0.3108567940794993,0.4246280613412683
1499369096346,0.850293736171511,-0.3098802166781107,0.43329518577859183
1499369096362,0.850293736171511,-0.30951400015259,0.43707942320897253
1499369096378,0.8469977874418246,-0.2952315556572822,0.42352941176470615
1499369096394,0.8667734798199431,-0.29547570000762935,0.4018005645838105
1499369096410,0.8689707789730674,-0.3036545357442586,0.389715419241627
1499369096426,0.849439230945296,-0.30951400015259,0.3989929045548184
1499369096442,0.8557869840543217,-0.3152513923857483,0.41217669947356406
1499369096458,0.8557869840543217,-0.3206225680933854,0.42731364919508685
1499369096474,0.8467536430914775,-0.313908598458839,0.43244068055237683
1499369096490,0.8341802090485997,-0.3148851758602276,0.4368352788586254
1499369096506,0.8681162737468524,-0.3192797741664761,0.4251163500419626
1499369096522,0.874219882505531,-0.3185473411154347,0.41339742122529977
1499369096538,0.8694590676737617,-0.31122301060502,0.4137636377508205
1499369096554,0.8617685206378267,-0.2981612878614479,0.4177920195315483
1499369096570,0.8645761806668188,-0.3014572365911343,0.42145418478675545
1499369096586,0.8664072632944224,-0.3019455252918286,0.41730373083085404
1499369096602,0.8686045624475467,-0.3065842679484243,0.41596093690394476
1499369096618,0.8703135728999767,-0.31329823758297115,0.4157167925535976
1499369096634,0.8679942015716788,-0.30951400015259,0.4144960708018619
1499369096650,0.8638437476157774,-0.3032883192187379,0.41889066910811046
1499369096666,0.868238345922026,-0.30682841229877145,0.41632715342946547
1499369096682,0.8711680781261917,-0.3091477836270693,0.4182803082322426
1499369096698,0.8971694514381632,-0.3125658045319297,0.43353933012893897
1499369096714,0.8915541313801789,-0.3328297856107425,0.41510643167772976
1499369096730,0.8400396734569311,-0.2728923476005187,0.3237964446478978
1499369096746,0.804516670481422,-0.3032883192187379,0.4683299000534067
1499369096762,0.8144045166704812,-0.31415274280918615,0.4358587014572368
1499369096778,0.8456549935149154,-0.28998245212481866,0.4402532997634854
1499369096795,0.8721446555275802,-0.2960860608834972,0.4375677119096668
1499369096811,0.8710460059510181,-0.2897383077744715,0.4246280613412683
1499369096827,0.8687266346227203,-0.28290226596475154,0.4140077821011676
1499369096843,0.8908216983291375,-0.2919356069275958,0.42902265964751685
1499369096859,0.8976577401388575,-0.2944991226062408,0.4334172579537654
1499369096875,0.8939955748836503,-0.2969405661097122,0.43073167009994684
1499369096891,0.9036392767223624,-0.31842526894026113,0.40387579156176123
1499369096907,0.9081559472037846,-0.2964522774090179,0.40131227588311624
1499369096923,0.9446555275806823,-0.33942168307011533,0.3128099488822764
1499369096939,0.892652780956741,-0.345769436179141,0.3585870145723655
1499369096955,0.8976577401388575,-0.3291676203555354,0.347356374456397
1499369096971,0.799389639124132,-0.30170138094148147,0.3351491569390399
1499369096987,0.8583504997329667,-0.2969405661097122,0.3368581673914699
1499369097003,0.8123292896925305,-0.31280994888227687,0.3318532082093535
1499369097019,0.7517814908064393,-0.35284962233920814,0.3549248493171584
1499369097035,0.754711223010605,-0.31012436102845786,0.39826047150377697
1499369097051,0.8463874265659568,-0.23883421072709243,0.3994811932555127
1499369097067,0.9673609521629665,-0.09564354924849328,0.43402761882963325
1499369097083,1.0149691004806591,-0.18011749446860437,0.42609292744335114
1499369097099,0.9264667734798202,-0.13678187228198668,0.5595178149080642
1499369097115,1.0023956664377813,-0.14447241931792165,0.6261692225528348
1499369097131,1.1553521019302666,-0.04461738002594018,0.5813687342641334
1499369097147,1.0071564812695506,-0.10492103456168467,0.6084687571526661
1499369097163,0.8814221408407725,-0.047913328755626594,0.38666361486228773
1499369097179,0.9118181124589917,0.23004501411459533,0.2343175402456703
1499369097195,0.7954833295185777,0.07244983596551435,0.07220569161516721
1499369097211,1.022659647516594,0.11419851987487561,0.0928358892195007
1499369097227,0.9994659342336156,0.10345616845960137,0.21564049744411395
1499369097243,1.013015945677882,0.00836194399938961,0.31598382543678927
1499369097259,1.185381857022965,-0.05535973144121442,0.19830624856946688
1499369097275,1.1465629053177695,-0.0875867856870376,0.11041428244449492
1499369097291,1.0396276798657205,-0.02288853284504455,0.029724574654764524
1499369097307,0.9698023956664379,-0.036316472114137355,0.01751735713740743
1499369097323,0.8577401388570989,-0.06512550545510054,0.07891966124971361
1499369097339,0.9461203936827651,-0.05401693751430514,0.09295796139467427
1499369097355,0.936476691844053,-0.06622415503166268,0.14422827496757495
1499369097371,0.9246356908522166,-0.08636606393530188,0.17193865873197556
1499369097387,0.9528343633173115,-0.10382238498512253,0.1759670405127034
1499369097403,1.0124055848020141,-0.10931563286793322,0.16913099870298343
1499369097419,1.032913710231174,-0.1417868314641031,0.18316929884794408
1499369097435,1.035233081559472,-0.15875486381322945,0.20209048599984758
1499369097451,0.96577401388571,-0.1724269474326694,0.2138094148165104
1499369097467,0.8438239108873118,-0.18573281452658863,0.24420538643472955
1499369097483,0.788281071183337,-0.21490806439307253,0.2960860608834972
1499369097499,0.7818112458991378,-0.24127565423056385,0.32941176470588207
1499369097515,0.8251468680857554,-0.25397116044861523,0.33502708476386633
1499369097531,0.8852063782711532,-0.24847791256580454,0.3435721370260163
1499369097547,0.9420920119020373,-0.240665293354696,0.33502708476386633
1499369097563,0.9843289845120928,-0.22796978713664462,0.31818112458991354
1499369097579,1.005325398641947,-0.2439612420843824,0.30548561837186217
1499369097595,0.9833524071107043,-0.2603189135576409,0.2993820096131836
1499369097611,0.9698023956664379,-0.29291218432898436,0.30548561837186217
1499369097627,0.9613794155794615,-0.30341039139391146,0.31061264972915215
1499369097643,0.9772487983520257,-0.2833905546654458,0.30511940184634145
1499369097659,0.9779812314030671,-0.28241397726405726,0.29681849393453863
1499369097675,0.96406500343328,-0.2905928130006865,0.2881513694972151
1499369097691,0.9533226520180058,-0.29925993743801005,0.2755779354543373
1499369097707,0.9612573434042879,-0.28461127641718154,0.25799954222934307
1499369097723,0.9801785305561914,-0.2620279240100709,0.23529411764705888
1499369097739,0.9950713359273671,-0.2520180056458381,0.22186617837796607
1499369097755,0.9892118715190357,-0.2516517891203174,0.2153963530937668
1499369097771,0.9839627679865721,-0.26019684138246735,0.21722743572137038
1499369097787,0.9800564583810178,-0.26105134660868234,0.21942473487449465
1499369097803,0.9566186007476922,-0.27069504844739445,0.22076752880140393
1499369097819,0.9495384145876251,-0.26984054322117945,0.22955672541390104
1499369097835,0.9497825589379723,-0.2788738841840237,0.2351720454718853
1499369097851,0.9429465171282523,-0.2796063172350651,0.2394445716029603
1499369097867,0.9358663309681852,-0.2752117189288166,0.24298466468299385
1499369097883,0.9210955977721831,-0.2717936980239566,0.23492790112153816
1499369097899,0.9385519188220037,-0.276798657206073,0.23492790112153816
1499369097915,0.9431906614785994,-0.2747234302281223,0.24298466468299385
1499369097931,0.953566796368353,-0.2755779354543373,0.2516517891203174
1499369097947,0.9638208590829329,-0.27362478065156015,0.2465247577630274
1499369097963,0.9439230945296408,-0.2868085755703058,0.2503089951934081
1499369097979,0.908033875028611,-0.29291218432898436,0.2558022430762188
1499369097995,0.8786144808117804,-0.30096894789044004,0.26434729533836876
1499369098011,0.8784924086366068,-0.30267795834287003,0.27362478065156015
1499369098027,0.9167009994659345,-0.3104905775539786,0.2548256656748302
1499369098043,0.9160906385900667,-0.2926680399786372,0.24029907682917528
1499369098059,0.9145037003128103,-0.2927901121538108,0.24457160296025027
1499369098075,0.8972915236133368,-0.3090257114518957,0.26935225452048517
1499369098091,0.8646982528419924,-0.30975814450293715,0.27191577019913016
1499369098108,0.8762951094834825,-0.3148851758602276,0.2709391927977416
1499369098124,0.8902113374532696,-0.32343022812237754,0.2575112535286488
1499369098140,0.9164568551155874,-0.34430457007705817,0.27692072938124657
1499369098156,0.903761348897536,-0.3345387960631725,0.27997253376058584
1499369098172,0.8883802548256661,-0.3206225680933854,0.275944151979858
1499369098188,0.9055924315251396,-0.30133516441596075,0.26349279011215376
1499369098204,0.9306172274357216,-0.3007248035400929,0.25006485084306096
1499369098220,0.9202410925459681,-0.32135500114442683,0.2533607995727474
1499369098236,0.8981460288395517,-0.3256275272755018,0.2562905317769131
1499369098252,0.8933852140077825,-0.3194018463416497,0.2573891813534752
1499369098268,0.9047379262989246,-0.32172121766994755,0.2548256656748302
1499369098284,0.9195086594949267,-0.3278248264286261,0.24982070649271382
1499369098300,0.9223163195239188,-0.3286793316548411,0.24542610818646526
1499369098316,0.9208514534218359,-0.32465094987411325,0.2339513237201496
1499369098332,0.9153582055390252,-0.32501716639963396,0.23504997329671173
1499369098348,0.9047379262989246,-0.3257495994506754,0.23871213855191886
1499369098364,0.9184100099183645,-0.32672617685206395,0.24786755168993668
1499369098380,0.9263447013046466,-0.33136491950865965,0.2515297169451438
1499369098396,0.9271992065308616,-0.3421072709239339,0.26190585183489734
1499369098412,0.9254901960784316,-0.3294117647058825,0.25690089265278093
1499369098428,0.9247577630273902,-0.3306324864576182,0.26349279011215376
1499369098444,0.9143816281376367,-0.3303883421072711,0.27313649195086587
1499369098460,0.9125505455100331,-0.3320973525597011,0.2885175860227358
1499369098476,0.9698023956664379,-0.33258564126039536,0.28876173037308295
1499369098492,0.9972686350804914,-0.30341039139391146,0.26263828488593877
1499369098508,0.8721446555275802,-0.2628824292362859,0.30133516441596075
1499369098524,0.8456549935149154,-0.3024338139925229,0.3411306935225449
1499369098540,0.8467536430914775,-0.35114061188677814,0.3486991683833063
1499369098556,0.8623788815136946,-0.36505683985656523,0.35638971541924125
1499369098572,0.8933852140077825,-0.35834287022201883,0.3734798199435412
1499369098588,0.8966811627374689,-0.34943160143434815,0.3784847791256585
1499369098604,0.9135271229114217,-0.3291676203555354,0.3683527885862512
1499369098620,0.9401388570992602,-0.3117112993057143,0.3628595407034405
1499369098636,0.9646753643091479,-0.3119554436560614,0.3573662928206298
1499369098652,0.9545433737697415,-0.31659418631265757,0.35126268406195127
1499369098668,0.9113298237582974,-0.320744640268559,0.3510185397116041
1499369098684,0.8982681010147253,-0.3264820325017168,0.3494316014343477
1499369098700,0.8914320592050053,-0.32550545510032824,0.3612726024261841
1499369098716,0.8809338521400782,-0.3303883421072711,0.36847486076142477
1499369098732,0.8836194399938968,-0.3373464560921646,0.36639963378347407
1499369098748,0.8848401617456325,-0.33270771343556893,0.3573662928206298
1499369098764,0.8899671931029225,-0.3151293202105747,0.35553521019302625
1499369098780,0.8672617685206374,-0.3247730220492868,0.3657892729076062
1499369098796,0.8600595101853967,-0.3353933012893875,0.3707942320897226
1499369098812,0.8488288700694282,-0.34015411612115676,0.36859693293659834
1499369098828,0.8388189517051954,-0.3429617761501489,0.3725032425421526
1499369098844,0.8533455405508503,-0.3403982604715039,0.37323567559319404
1499369098860,0.8688487067978938,-0.33258564126039536,0.37018387121385476
1499369098876,0.8782482642862597,-0.3340505073624782,0.36432440680552336
1499369098892,0.873365377279316,-0.3357595178149082,0.3657892729076062
1499369098908,0.883009079118029,-0.34699015793087673,0.3657892729076062
1499369098924,0.8399176012817575,-0.34222934309910746,0.37360189211871475
1499369098940,0.8131837949187455,-0.3340505073624782,0.39447623407339627
1499369098956,0.8267338063630119,-0.3391775387197682,0.39874876020447125
1499369098972,0.8468757152666511,-0.3324635690852218,0.39081406881818914
1499369098988,0.8645761806668188,-0.3333180743114368,0.3959411001754791
1499369099004,0.8706797894254974,-0.33221942473487465,0.4003356984817277
1499369099020,0.8638437476157774,-0.33307392996108964,0.40216678110933124
1499369099036,0.8581063553826196,-0.3361257343404289,0.40460822461280266
1499369099052,0.840650034332799,-0.34528114747844674,0.4098573281452662
1499369099068,0.829541466392004,-0.3521171892881667,0.41266498817425834
1499369099084,0.8310063324940868,-0.357732509346151,0.41425192645151476
1499369099100,0.8364995803768975,-0.35700007629510955,0.41351949340047334
1499369099116,0.8444342717631796,-0.35956359197375454,0.4132753490501262
1499369099132,0.8435797665369646,-0.35443656061646456,0.4116884107728698
1499369099148,0.8542000457770653,-0.34894331273365387,0.40167849240863696
1499369099164,0.8467536430914775,-0.34528114747844674,0.4010681315327691
1499369099180,0.8423590447852289,-0.34979781795986886,0.40851453421835693
1499369099196,0.8350347142748147,-0.3512626840619517,0.41559472037842404
1499369099212,0.8318608377203018,-0.34991989013504243,0.4144960708018619
1499369099228,0.8489509422446018,-0.3529716945143817,0.4177920195315483
1499369099244,0.8650644693675131,-0.344060425726711,0.41437399862668833
1499369099260,0.8694590676737617,-0.3371023117418175,0.41596093690394476
1499369099276,0.8683604180971995,-0.3352712291142139,0.4175478751812012
1499369099292,0.8675059128709846,-0.3379568169680325,0.4165712977798126
1499369099308,0.8577401388570989,-0.3454032196536203,0.4140077821011676
1499369099324,0.8482185091935603,-0.3529716945143817,0.41730373083085404
1499369099340,0.8498054474708168,-0.3621271076523995,0.41510643167772976
1499369099356,0.860547798886091,-0.3677424277103838,0.41254291599908477
1499369099372,0.8410162508583197,-0.36285954070344095,0.4131532768749526
1499369099388,0.8432135500114439,-0.3631036850537881,0.4093690394445719
1499369099404,0.8448004882887004,-0.357732509346151,0.41181048294804334
1499369099420,0.8419928282597082,-0.35272755016403456,0.41681544213015975
1499369099436,0.8345464255741204,-0.3524834058136874,0.41425192645151476
1499369099452,0.8375982299534597,-0.349187457084001,0.4120546272983905
1499369099468,0.8358892195010297,-0.3488212405584803,0.41437399862668833
1499369099484,0.8488288700694282,-0.3605401693751431,0.4158388647287712
1499369099500,0.8404058899824518,-0.3610284580758374,0.4182803082322426
1499369099516,0.8318608377203018,-0.35785458152132454,0.42096589608606116
1499369099532,0.8272220950637061,-0.357732509346151,0.41718165865568047
1499369099548,0.8412603952086668,-0.3555352101930267,0.41217669947356406
1499369099564,0.8504158083466846,-0.350041962310216,0.4099794003204398
1499369099581,0.859693293659876,-0.35150682841229886,0.4169375143053333
1499369099597,0.8573739223315782,-0.35101853971160457,0.4237735561150533
1499369099613,0.853711757076371,-0.3501640344853896,0.426703288319219
1499369099629,0.8472419317921718,-0.351750972762646,0.422430762188144
1499369099645,0.8327153429465168,-0.35956359197375454,0.42096589608606116
1499369099661,0.830395971618219,-0.3629816128786145,0.4213321126115819
1499369099677,0.8367437247272447,-0.36578927290760666,0.4220645456626233
1499369099693,0.8410162508583197,-0.3617608911268788,0.42023346303501974
1499369099709,0.8378423743038068,-0.35565728236820027,0.42780193789578114
1499369099725,0.8396734569314104,-0.3529716945143817,0.4299992370489054
1499369099741,0.8450446326390475,-0.3501640344853896,0.4271915770199133
1499369099757,0.8437018387121382,-0.3441824979018846,0.4263370717936983
1499369099773,0.8405279621576254,-0.3495536736095217,0.42609292744335114
1499369099789,0.8405279621576254,-0.356023498893721,0.4204776073853669
1499369099805,0.8410162508583197,-0.35858701457236597,0.42023346303501974
1499369099821,0.8340581368734261,-0.36542305638208594,0.4242618448157476
1499369099837,0.8275883115892269,-0.3701838712138552,0.4282902265964754
1499369099853,0.8292973220416568,-0.37079423208972306,0.4213321126115819
1499369099869,0.8388189517051954,-0.36835278858625164,0.41522850385290333
1499369099885,0.8426031891355761,-0.3638361181048295,0.40546272983901765
1499369099901,0.8405279621576254,-0.3655451285572595,0.4081483176928362
1499369099917,0.8384527351796747,-0.3698176546883345,0.41058976119630763
1499369099933,0.839795529106584,-0.36713206683451594,0.41644922560463904
1499369099949,0.8433356221866175,-0.36493476768139166,0.4199893186846726
1499369099965,0.8415045395590139,-0.3672541390096895,0.41718165865568047
1499369099981,0.8395513847562368,-0.36908522163729307,0.4203555352101933
1499369099997,0.838086518654154,-0.36493476768139166,0.42023346303501974
1499369100013,0.8373540856031125,-0.356023498893721,0.41937895780880474
1499369100029,0.8467536430914775,-0.35150682841229886,0.41815823605706903
1499369100045,0.833813992523079,-0.3562676432440681,0.41925688563363117
1499369100061,0.8202639810788126,-0.3610284580758374,0.42682536049439257
1499369100077,0.8185549706263826,-0.36505683985656523,0.430975814450294
1499369100093,0.8117189288166626,-0.37128252079041735,0.43732356755931967
1499369100109,0.7909666590371556,-0.38434424353398944,0.4566109712367439
1499369100125,0.7792477302204928,-0.3841000991836423,0.465400167849241
1499369100141,0.7930418860151063,-0.37372396429388877,0.47614251926451523
1499369100157,0.8069581139848934,-0.37421225299458305,0.47138170443274596
1499369100173,0.8460212100404361,-0.3676203555352102,0.4484321355001146
1499369100189,0.859693293659876,-0.351750972762646,0.41815823605706903
1499369100205,0.8684824902723731,-0.3350270847638668,0.39874876020447125
1499369100221,0.8715342946517124,-0.3163500419623104,0.3775082017242699
1499369100237,0.8921644922560468,-0.3142748149843597,0.3778744182497906
1499369100253,0.8997329671168082,-0.2888838025482565,0.3919127183947513
1499369100269,0.919142442969406,-0.2893720912489508,0.4140077821011676
1499369100285,0.9052262149996189,-0.30511940184634145,0.4509956511787596
1499369100301,0.8872816052491039,-0.31842526894026113,0.47980468451972236
1499369100317,0.8611581597619589,-0.32245365072098897,0.4892042420080873
1499369100333,0.8349126420996411,-0.33344014648661036,0.47907225146868093
1499369100349,0.8349126420996411,-0.3362478065156025,0.4574654764629589
1499369100365,0.8561532005798425,-0.3366140230411232,0.4279240100709547
1499369100381,0.8834973678187232,-0.3383230334935532,0.4018005645838105
1499369100397,0.8870374608987568,-0.3421072709239339,0.36737621118486263
1499369100413,0.8837415121690704,-0.350896467536431,0.32904554818036136
1499369100429,0.8896009765774018,-0.36884107728694593,0.2847333485923551
1499369100445,0.896925307087816,-0.3749446860456245,0.2494544899671931
1499369100461,0.904615854123751,-0.3832455939574273,0.22540627145799963
1499369100477,0.9109636072327767,-0.39020370794232084,0.22284275577935464
1499369100493,0.9013199053940646,-0.393011367971313,0.2208896009765775
1499369100509,0.9036392767223624,-0.3906919966430151,0.2116121156633861
1499369100525,0.9043717097734039,-0.37213702601663234,0.20343327992675686
1499369100541,0.9292744335088123,-0.348332951857786,0.2024567025253683
1499369100557,0.9365987640192266,-0.32257572289616254,0.20477607385366614
1499369100573,0.9346456092164495,-0.29974822613870433,0.21173418783855968
1499369100589,0.917433432516976,-0.29510948348210864,0.21649500267032895
1499369100605,0.9109636072327767,-0.29413290608072007,0.21490806439307253
1499369100621,0.9142595559624631,-0.2938887617303729,0.22406347753109035
1499369100637,0.9135271229114217,-0.2985275043869686,0.22748149843595034
1499369100653,0.9192645151445795,-0.30341039139391146,0.23077744716563675
1499369100669,0.9077897306782639,-0.30841535057602787,0.22882429236285962
1499369100685,0.9115739681086446,-0.3091477836270693,0.22198825055313964
1499369100701,0.9203631647211417,-0.30682841229877145,0.2121004043640804
1499369100717,0.9258564126039524,-0.3154955367360954,0.20270084687571543
1499369100733,0.9060807202258339,-0.3268482490272375,0.19940489814602902
1499369100749,0.8939955748836503,-0.3395437552452889,0.19098191805905262
1499369100765,0.8939955748836503,-0.3378347447928589,0.17901884489204267
1499369100781,0.8937514305333032,-0.3411306935225453,0.16437018387121416
1499369100797,0.8992446784161139,-0.35150682841229886,0.16437018387121416
1499369100813,0.8944838635843446,-0.35748836499580383,0.16388189517051988
1499369100829,0.8898451209277489,-0.36615548943312737,0.16412603952086702
1499369100845,0.8915541313801789,-0.3770199130235752,0.18805218585488692
1499369100861,0.8876478217746246,-0.38348973830777444,0.20941481651026184
1499369100877,0.8981460288395517,-0.38178072785534445,0.21979095140001537
1499369100893,0.9120622568093388,-0.36871900511177236,0.22223239490348679
1499369100909,0.9263447013046466,-0.35187304493781957,0.21942473487449465
1499369100925,0.9346456092164495,-0.33844510566872676,0.2263828488593882
1499369100941,0.9445334554055087,-0.34564736400396745,0.2548256656748302
1499369100957,0.948439765011063,-0.34808880750743887,0.27106126497291516
1499369100974,0.9402609292744337,-0.34015411612115676,0.278507667658503
1499369100990,0.9445334554055087,-0.3209887846189061,0.2746013580529487
1499369101006,0.9468528267338066,-0.30682841229877145,0.274235141527428
1499369101022,0.9591821164263372,-0.30084687571526647,0.28326848249027226
1499369101038,0.9556420233463037,-0.30170138094148147,0.29596398870832363
1499369101054,0.9464866102082858,-0.30682841229877145,0.2999923704890515
1499369101070,0.9350118257419702,-0.30804913405050716,0.29803921568627434
1499369101086,0.9262226291294731,-0.2981612878614479,0.2868085755703058
1499369101102,0.9295185778591595,-0.2969405661097122,0.27325856412603944
1499369101118,0.9337911039902345,-0.3053635461966886,0.2714274814984359
1499369101134,0.9258564126039524,-0.31219958800640857,0.2747234302281223
1499369101150,0.915724422064546,-0.3134203097581447,0.2687418936446173
1499369101166,0.900343327992676,-0.3201342793926911,0.25506981002517737
1499369101182,0.9102311741817353,-0.3214770733196004,0.25690089265278093
1499369101198,0.9257343404287788,-0.32257572289616254,0.2661783779659723
1499369101214,0.9358663309681852,-0.313908598458839,0.2692301823453116
1499369101230,0.9293965056839859,-0.31708247501335185,0.2714274814984359
1499369101246,0.9395284962233923,-0.31219958800640857,0.27362478065156015
1499369101262,0.9513694972152287,-0.30304417486839075,0.27313649195086587
1499369101278,0.947585259784848,-0.29584191653315006,0.26276035706111234
1499369101294,0.9325703822384988,-0.28668650339513224,0.2523842221713588
1499369101310,0.9185320820935381,-0.2650797283894102,0.23212024109254603
1499369101326,0.9184100099183645,-0.25091935606927596,0.22565041580834677
1499369101342,0.9162127107652402,-0.24847791256580454,0.2171053635461968
1499369101358,0.9188982986190588,-0.2504310673685817,0.20587472343022828
1499369101374,0.9234149691004809,-0.2506752117189288,0.19513237201495404
1499369101390,0.9423361562523844,-0.24921034561684596,0.17914091706721624
1499369101406,0.9536888685435265,-0.23334096284428174,0.16144045166704846
1499369101422,0.9447775997558558,-0.23065537499046318,0.1553368429083699
1499369101438,0.9580834668497751,-0.22308690012970178,0.15692378118562633
1499369101454,0.9584496833752958,-0.24689097428854812,0.17279316395819055
1499369101470,0.9335469596398873,-0.2570229648279545,0.18414587624933265
1499369101486,0.9120622568093388,-0.2676432440680552,0.203677424277104
1499369101502,0.8974135957885103,-0.27911802853437084,0.20782787823300541
1499369101518,0.9239032578011752,-0.2641031509880216,0.21149004348821254
1499369101534,0.9212176699473567,-0.26227206836041805,0.22833600366216533
1499369101550,0.9353780422674909,-0.25311665522240023,0.23321889066910817
1499369101566,0.9639429312581065,-0.23785763332570387,0.25384908827344166
1499369101582,0.9638208590829329,-0.2208896009765775,0.2565346761272602
1499369101598,0.9806668192568857,-0.1961089494163426,0.27325856412603944
1499369101614,0.9705348287174793,-0.19134813458457334,0.28656443121995867
1499369101630,0.9934843976501107,-0.20514229037918685,0.2872968642710001
1499369101646,0.9886015106431678,-0.20392156862745114,0.2709391927977416
1499369101662,1.032059205004959,-0.1890287632562755,0.24847791256580454
1499369101678,1.0052033264667735,-0.22406347753109035,0.23993286030365457
1499369101694,0.9884794384679942,-0.2305333028152896,0.25140764476997024
1499369101710,0.9831082627603571,-0.2305333028152896,0.269108110170138
1499369101726,0.9590600442511636,-0.2566567483024338,0.26984054322117945
1499369101742,0.9431906614785994,-0.25592431525139236,0.2637369344625009
1499369101758,0.951857785915923,-0.22687113756008248,0.25006485084306096
1499369101774,0.9850614175631343,-0.20563057907988114,0.23822384985122458
1499369101790,1.00337224383917,-0.20355535210193043,0.23736934462500958
1499369101806,0.9839627679865721,-0.2095368886854354,0.24457160296025027
1499369101822,0.951857785915923,-0.22369726100556964,0.2520180056458381
1499369101838,0.9446555275806823,-0.23041123064011604,0.2638590066376745
1499369101854,0.9496604867627987,-0.23321889066910817,0.26984054322117945
1499369101870,0.9401388570992602,-0.23700312809948887,0.2695963988708323
1499369101886,0.9363546196688795,-0.24213015945677885,0.270817120622568
1499369101902,0.9306172274357216,-0.238956282902266,0.2704509040970473
1499369101918,0.9319600213626309,-0.23248645761806674,0.27069504844739445
1499369101934,0.9395284962233923,-0.2280918593118182,0.27704280155642014
1499369101950,0.9389181353475244,-0.23114366369115746,0.2809491111619744
1499369101966,0.9291523613336388,-0.22601663233386748,0.2818036163881894
1499369101982,0.933058670939193,-0.22223239490348679,0.27191577019913016
1499369101998,0.9342793926909287,-0.22015716792553608,0.2671549553673609
1499369102014,0.935622186617838,-0.21991302357518894,0.26349279011215376
1499369102030,0.9209735255970095,-0.21527428091859324,0.2616617074845502
1499369102046,0.9103532463569088,-0.2167391470206761,0.26141756313420306
1499369102062,0.9237811856260016,-0.21307698176546896,0.25848783093003735
1499369102078,0.9385519188220037,-0.21441977569237824,0.2661783779659723
1499369102094,0.9431906614785994,-0.22406347753109035,0.275089646753643
1499369102110,0.9425803006027316,-0.22626077668421463,0.2800946059357594
1499369102126,0.9462424658579387,-0.22211032272831321,0.2843671320668344
1499369102142,0.9439230945296408,-0.22284275577935464,0.28241397726405726
1499369102158,0.9337911039902345,-0.22101167315175108,0.27862973983367656
1499369102174,0.9243915465018695,-0.21344319829098968,0.27362478065156015
1499369102190,0.9379415579461359,-0.2048981460288397,0.26898603799496446
1499369102206,0.9488059815365837,-0.19537651636530118,0.2666666666666666
1499369102222,0.9417257953765166,-0.20135805294880615,0.2705729762722209
1499369102238,0.9336690318150609,-0.20599679560540185,0.27606622415503157
1499369102254,0.9384298466468302,-0.20978103303578255,0.2775310902571144
1499369102270,0.9457541771572444,-0.20648508430609613,0.2771648737315937
1499369102286,0.9413595788509959,-0.2138094148165104,0.27362478065156015
1499369102302,0.9428244449530787,-0.2158846417944611,0.2737468528267337
1499369102318,0.9534447241931794,-0.21832608529793252,0.274235141527428
1499369102334,0.9560082398718244,-0.22320897230487535,0.2838788433661401
1499369102350,0.939894712748913,-0.22821393148699176,0.3007248035400929
1499369102366,0.9187762264438852,-0.22162203402761893,0.3117112993057143
1499369102383,0.9185320820935381,-0.21026932173647683,0.3023117418173493
1499369102399,0.9293965056839859,-0.20587472343022828,0.2864423590447851
1499369102415,0.9367208361944002,-0.2116121156633861,0.26861982146944374
1499369102431,0.9446555275806823,-0.2112458991378654,0.2590981918059052
1499369102447,0.9420920119020373,-0.21441977569237824,0.25799954222934307
1499369102463,0.9423361562523844,-0.21307698176546896,0.2752117189288166
1499369102479,0.9427023727779051,-0.2175936522468911,0.2860761425192644
1499369102495,0.9569848172732129,-0.21551842526894038,0.2927901121538108
1499369102511,0.9615014877546351,-0.22064545662623036,0.28839551384756223
1499369102527,0.9582055390249486,-0.2171053635461968,0.2818036163881894
1499369102543,0.9469748989089801,-0.2200350957503625,0.2843671320668344
1499369102559,0.9497825589379723,-0.21979095140001537,0.29169146257724865
1499369102575,0.9534447241931794,-0.2191805905241475,0.2955977721828029
1499369102591,0.9453879606317237,-0.2191805905241475,0.2918135347524222
1499369102607,0.9369649805447473,-0.2208896009765775,0.29340047302967864
1499369102623,0.9423361562523844,-0.21551842526894038,0.29974822613870433
1499369102639,0.9429465171282523,-0.22027924010070965,0.3087815671015486
1499369102655,0.9274433508812088,-0.22858014801251247,0.31781490806439283
1499369102671,0.9195086594949267,-0.23846799420157172,0.3241626611734185
1499369102687,0.9311055161364159,-0.238101777676051,0.3090257114518957
1499369102703,0.9201190203707945,-0.22320897230487535,0.2974288548104065
1499369102719,0.904615854123751,-0.21698329137102323,0.29083695735103365
1499369102735,0.9293965056839859,-0.2322423132677196,0.3015793087663079
1499369102751,0.9273212787060352,-0.23651483939879459,0.305241474021515
1499369102767,0.9369649805447473,-0.22662699320973534,0.2998702983138779
1499369102783,0.946730754558633,-0.20697337300679042,0.2948653391317615
1499369102799,0.9384298466468302,-0.20050354772259116,0.2974288548104065
1499369102815,0.954421301594568,-0.202822919050889,0.2894941634241244
1499369102831,0.9643091477836272,-0.20209048599984758,0.29925993743801005
1499369102847,0.950148775463493,-0.21832608529793252,0.2974288548104065
1499369102863,0.9309834439612423,-0.2258945601586939,0.2947432669565879
1499369102879,0.9335469596398873,-0.23883421072709243,0.2871747920958265
1499369102895,0.9378194857709623,-0.24261844815747313,0.27862973983367656
1499369102911,0.9285420004577709,-0.24310673685816742,0.27606622415503157
1499369102927,0.9267109178301673,-0.23736934462500958,0.27777523460746156
1499369102943,0.9230487525749602,-0.22626077668421463,0.2766765850308994
1499369102959,0.9281757839322502,-0.23041123064011604,0.28278019378957797
1499369102975,0.9378194857709623,-0.238101777676051,0.2872968642710001
1499369102991,0.9413595788509959,-0.241519798580911,0.2919356069275958
1499369103007,0.9448996719310294,-0.238956282902266,0.2872968642710001
1499369103023,0.9461203936827651,-0.23993286030365457,0.28583199816891725
1499369103039,0.941603723201343,-0.23248645761806674,0.2805828946364537
1499369103055,0.9391622796978716,-0.23675898374914173,0.2814373998626687
1499369103071,0.9308613717860688,-0.24029907682917528,0.2833905546654458
1499369103087,0.9376974135957887,-0.23675898374914173,0.2847333485923551
1499369103103,0.9401388570992602,-0.23822384985122458,0.2805828946364537
1499369103119,0.9430685893034259,-0.23907835507743957,0.27826352330815585
1499369103135,0.9369649805447473,-0.24640268558785383,0.27618829633020514
1499369103151,0.936476691844053,-0.2525062943465324,0.27203784237430373
1499369103167,0.9210955977721831,-0.25592431525139236,0.26898603799496446
1499369103183,0.9110856794079503,-0.25848783093003735,0.2721599145494773
1499369103199,0.9018081940947589,-0.25885404745555807,0.27118333714808873
1499369103215,0.9173113603418024,-0.27655451285572585,0.27203784237430373
1499369103231,0.9505149919890137,-0.2927901121538108,0.25470359349965666
1499369103247,0.9486839093614101,-0.29791714351110077,0.2348058289463646
1499369103263,0.9261005569542995,-0.3003585870145722,0.24786755168993668
1499369103279,0.9231708247501338,-0.3281910429541468,0.23968871595330743
1499369103295,0.9387960631723509,-0.32245365072098897,0.2537270160982681
1499369103311,0.9271992065308616,-0.32294193942168326,0.2477454795147631
1499369103327,0.9884794384679942,-0.33514915693904035,0.20965896086060898
1499369103343,1.0047150377660792,-0.3328297856107425,0.1776760509651334
1499369103359,1.0211947814145113,-0.3358815899900818,0.13641565575646641
1499369103375,1.0359655146105133,-0.3333180743114368,0.14984359502555922
1499369103391,1.018997482261387,-0.3572442206454567,0.124330510414282
1499369103407,0.9759060044251164,-0.40411993591210793,0.11029221026932134
1499369103423,0.9026626993209739,-0.4038757915617608,0.17108415350576056
1499369103439,0.8914320592050053,-0.38348973830777444,0.12530708781567146
1499369103455,0.9779812314030671,-0.3358815899900818,0.07928587777523433
1499369103471,1.0390173189898526,-0.3319752803845275,0.05548180361638799
1499369103487,1.0263218127718012,-0.3361257343404289,0.03802548256656735
1499369103503,1.0297398336766612,-0.35358205539024956,0.02923628595407024
1499369103519,1.073075455863279,-0.3274586099031054,0.09308003356984784
1499369103535,0.9787136644541086,-0.28741893644617367,0.15277332722972492
1499369103551,0.8870374608987568,-0.3031662470435643,0.15008773937590636
1499369103567,0.9033951323720153,-0.26227206836041805,0.13324177920195357
1499369103583,0.9110856794079503,-0.23590447852292673,0.10492103456168422
1499369103599,0.9348897535667966,-0.23089951934081032,0.062439917601281536
1499369103615,0.9793240253299764,-0.20770580605783184,0.0680552376592658
1499369103631,0.9911650263218128,-0.22699320973525605,0.07623407339589505
1499369103647,0.9727321278706036,-0.2504310673685817,0.13751430533302855
1499369103663,0.9430685893034259,-0.2595864805065995,0.19549858854047475
1499369103679,0.948439765011063,-0.19305714503700333,0.2351720454718853
1499369103695,0.9689478904402229,-0.2048981460288397,0.24701304646372169
1499369103711,0.9246356908522166,-0.2650797283894102,0.2991378652628365
1499369103727,0.8780041199359125,-0.3119554436560614,0.33966582742046203
1499369103743,0.864820325017166,-0.29889372091248934,0.3515068284122984
1499369103759,0.9110856794079503,-0.3140306706340126,0.3707942320897226
1499369103776,0.9671168078126193,-0.34723430228122387,0.3556572823681998
1499369103792,0.8913099870298318,-0.30768291752498644,0.3537041275654227
1499369103808,0.8504158083466846,-0.28656443121995867,0.33783474479285847
1499369103824,0.7688715953307392,-0.2754558632791637,0.35382619974059626
1499369103840,0.8401617456321047,-0.3268482490272375,0.41901274128328403
1499369103856,0.8518806744487675,-0.30267795834287003,0.38690775921263487
1499369103872,0.8095216296635384,-0.31586175326161614,0.3800717174029149
1499369103888,0.7541008621347371,-0.34528114747844674,0.38617532616159345
1499369103904,0.8009765774013884,-0.37885099565117875,0.4237735561150533
1499369103920,0.9138933394369424,-0.3997253376058594,0.4530708781567103
1499369103936,0.8444342717631796,-0.40521858548867007,0.37531090257114563
1499369103952,0.8727550164034481,-0.3429617761501489,0.2638590066376745
1499369103968,0.9047379262989246,-0.3598077363241017,0.17206073090714913
1499369103984,0.9350118257419702,-0.3256275272755018,0.18341344319829123
1499369104000,0.9516136415655758,-0.26483558403906304,0.171816586556802
1499369104016,0.9550316624704358,-0.15484855420767518,0.13336385137712714
1499369104032,0.831250476844434,-0.1862211032272829,0.24884412909132525
1499369104048,0.758129243915465,-0.20404364080262472,0.237247272449836
1499369104064,0.9152361333638517,-0.21698329137102323,0.1893949797817962
1499369104080,0.9551537346456094,-0.1829251544975965,0.19928282597085545
1499369104096,0.951857785915923,-0.039124132143129486,0.2902265964751658
1499369104112,1.0230258640421148,-0.11944762340733961,0.28241397726405726
1499369104128,0.9699244678416115,-0.12469672693980316,0.31317616540779714
1499369104144,0.9630884260318915,-0.15655756466010518,0.3145189593347064
1499369104160,0.9638208590829329,-0.20782787823300541,0.20892652780956755
1499369104176,0.8731212329289688,-0.2267490653849089,0.3031662470435643
1499369104192,0.8911879148546582,-0.2007476920729383,0.40680552376592694
1499369104208,1.0032501716639963,-0.3189135576409554,0.39496452277409055
1499369104224,0.9679713130388343,-0.3065842679484243,0.37116044861524333
1499369104240,0.9402609292744337,-0.31061264972915215,0.40119020370794267
1499369104256,0.9763942931258107,-0.349187457084001,0.3750667582207985
1499369104272,0.9646753643091479,-0.39740596627756153,0.3936217288471813
1499369104288,0.833813992523079,-0.46051728084229815,0.4469672693980318
1499369104304,0.7505607690547036,-0.5031204699778744,0.4871290150301366
1499369104320,0.7309071488517587,-0.491279468986038,0.45294880598153675
1499369104336,0.7763179980163271,-0.47235828183413453,0.4426947432669568
1499369104352,0.8091554131380176,-0.45429159990844603,0.40009155413138053
1499369104368,0.8181887541008619,-0.4207217517357136,0.4099794003204398
1499369104384,0.7949950408178834,-0.42377355611505285,0.41596093690394476
1499369104400,0.7829098954756999,-0.42963302052338426,0.4422064545662625
1499369104416,0.7892576485847256,-0.40155642023346294,0.34552529182879343
1499369104432,0.8054932478828105,-0.3693293659876402,0.36176089112687837
1499369104448,0.7742427710383764,-0.4190127412832836,0.4024109254596784
1499369104464,0.8322270542458226,-0.40326543068589293,0.3667658503089948
1499369104480,0.8189211871519033,-0.42340733958953214,0.3477225909819177
1499369104496,0.8012207217517355,-0.41913481345845716,0.35004196231021556
1499369104512,0.7744869153887235,-0.41290913252460504,0.37482261387045046
1499369104528,0.7384756237125201,-0.4215762569619286,0.37616540779736063
1499369104544,0.7158922713054094,-0.43720149538414566,0.3936217288471813
1499369104560,0.7047837033646145,-0.464545662623026,0.42230869001297044
1499369104576,0.7146715495536737,-0.4892042420080873,0.42108796826123474
1499369104592,0.7235828183413444,-0.5033646143282215,0.4157167925535976
1499369104608,0.7239490348668651,-0.5327840085450521,0.427557793545434
1499369104624,0.7012436102845809,-0.5644007019150075,0.4509956511787596
1499369104640,0.6673075455863282,-0.5956511787594416,0.47064927138170454
1499369104656,0.6613260090028232,-0.6034637979705502,0.4867627985046159
1499369104672,0.6784161135271232,-0.604928664072633,0.48651865415426876
1499369104688,0.7205310139620051,-0.6056610971236744,0.49665064469367515
1499369104704,0.7270008392462044,-0.5895475700007631,0.5138628213931486
1499369104720,0.6928206301976045,-0.5783169298847946,0.5300984206912336
1499369104736,0.682444495307851,-0.5650110627908753,0.5215533684290836
1499369104752,0.707469291218433,-0.5319295033188371,0.5106889448386358
1499369104768,0.7947508964675363,-0.508369573510338,0.47980468451972236
1499369104784,0.8747081712062252,-0.5136186770428015,0.4455024032959489
1499369104800,0.8136720836194398,-0.5407186999313343,0.4372014953841461
1499369104816,0.6478980697337304,-0.5474326695658807,0.49115739681086446
1499369104832,0.6536354619668883,-0.5535362783245592,0.5227740901808193
1499369104848,0.7836423285267413,-0.5656214236667432,0.5004348821240558
1499369104864,0.815014877546349,-0.579049362935836,0.4807812619211109
1499369104880,0.7486076142519265,-0.5568322270542456,0.4874952315556573
1499369104896,0.7326161593041887,-0.5033646143282215,0.5114213778896772
1499369104912,0.6834210727092396,-0.48822766460669875,0.5082475013351644
1499369104928,0.6668192568856339,-0.4599069199664303,0.47345693141069667
1499369104944,0.7039291981383995,-0.45539024948500817,0.4489204242008089
1499369104960,0.7084458686198216,-0.43097581445029354,0.46308079652094314
1499369104976,0.7062485694666973,-0.42572671091783,0.4822461280231938
1499369104992,0.747875181200885,-0.41828030823224216,0.4599069199664303
1499369105008,0.7940184634164948,-0.45294880598153675,0.43146410315098827
1499369105024,0.753002212558175,-0.4863965819790952,0.4404974441138325
1499369105040,0.6990463111314567,-0.498115510795758,0.5043411917296101
1499369105056,0.7268787670710308,-0.5309529259174486,0.5482871747920957
1499369105072,0.7558098725871671,-0.5518272678721292,0.5484092469672692
1499369105088,0.7107652399481195,-0.567940794995041,0.5774624246585791
1499369105104,0.7053940642404823,-0.580758373388266,0.577218280308232
1499369105120,0.6792706187533382,-0.5611047531853206,0.5751430533302813
1499369105137,0.5702601663233384,-0.5381551842526893,0.6040741588464176
1499369105153,0.4635690852216374,-0.5626916914625775,0.6572976272220954
1499369105169,0.5126420996414129,-0.5939421683070116,0.6365453574425883
1499369105185,0.5216754406042572,-0.5349813076981764,0.6243381399252304
1499369105201,0.5485313191424428,-0.5598840314335849,0.6281223773556119
1499369105217,0.6037079423208969,-0.5517051956969556,0.6205539024948497
1499369105233,0.6741435873960482,-0.5534142061493856,0.5751430533302813
1499369105249,0.7273670557717251,-0.5525597009231706,0.5255817502098115
1499369105265,0.7473868925001907,-0.5625696192874039,0.4603952086671246
1499369105281,0.7825436789501792,-0.5418173495078964,0.383733882658122
1499369105297,0.7820553902494849,-0.5076371404592965,0.3364919508659492
1499369105313,0.7505607690547036,-0.5042191195544365,0.34760051880674414
1499369105329,0.6659647516594189,-0.5303425650415807,0.40802624551766264
1499369105345,0.690135042343786,-0.5099565117875944,0.3980163271534298
1499369105361,0.7720454718852521,-0.5421835660334171,0.3917906462195777
1499369105377,0.8748302433813988,-0.5243610284580758,0.35602349889372054
1499369105393,0.8637216754406039,-0.534248874647135,0.40497444113832337
1499369105409,0.7766842145418478,-0.5390096894789043,0.44672312504768463
1499369105425,0.7948729686427098,-0.546211947814145,0.4518501564049746
1499369105441,0.7294422827496758,-0.5388876173037307,0.45624475471122317
1499369105457,0.5808804455634391,-0.47895017929350736,0.5357137407492178
1499369105473,0.6209201190203704,-0.5855191882200352,0.5778286411840998
1499369105489,0.5851529716945141,-0.5260700389105057,0.5477988860914014
1499369105505,0.6231174181734946,-0.493842984664683,0.5443808651865414
1499369105521,0.6457007705806062,-0.46210421911955457,0.5526817730983442
1499369105537,0.6988021667811095,-0.5283894102388036,0.5413290608072021
1499369105553,0.7791256580453192,-0.5289997711146714,0.5112993057145037
1499369105569,0.7660639353017471,-0.542793926909285,0.4528267338063632
1499369105585,0.7094224460212102,-0.54023041123064,0.4530708781567103
1499369105601,0.7110093842984666,-0.5166704814221408,0.4501411459525446
1499369105617,0.7757076371404592,-0.5217975127794308,0.4464789806973375
1499369105633,0.8123292896925305,-0.5603723201342792,0.4312199588006411
1499369105649,0.7768062867170213,-0.5774624246585796,0.41815823605706903
1499369105665,0.710032806897078,-0.5654993514915696,0.41901274128328403
1499369105681,0.6957503624017702,-0.5467002365148392,0.422430762188144
1499369105697,0.6878156710154881,-0.5353475242236971,0.42267490653849116
1499369105713,0.7013656824597545,-0.5125200274662394,0.39960326543068625
1499369105729,0.7527580682078279,-0.5126420996414129,0.391424429694057
1499369105745,0.747875181200885,-0.5302204928664072,0.40509651331349694
1499369105761,0.7663080796520942,-0.5654993514915696,0.43231860837720326
1499369105777,0.754711223010605,-0.5719691767757689,0.4280460822461283
1499369105793,0.7344472419317922,-0.5603723201342792,0.42523842221713615
1499369105809,0.708323796444648,-0.557564660105287,0.4115663385976962
1499369105825,0.684153505760281,-0.5436484321355,0.43915465018692323
1499369105841,0.6835431448844131,-0.5335164415960936,0.46222629129472814
1499369105857,0.7124742504005495,-0.5580529488059813,0.47431143663691167
1499369105873,0.6996566720073245,-0.542793926909285,0.4581979095140003
1499369105889,0.7075913633936066,-0.5414511329823757,0.4678416113527124
1499369105905,0.7339589532310979,-0.5407186999313343,0.463691157396811
1499369105921,0.751293202105745,-0.5141069657434958,0.4597848477912567
1499369105937,0.7475089646753643,-0.5304646372167543,0.4578316929884796
1499369105953,0.7287098496986344,-0.5571984435797663,0.45001907377737105
1499369105969,0.7200427252613109,-0.5582970931563285,0.43915465018692323
1499369105985,0.7051499198901352,-0.5678187228198674,0.4367132066834518
1499369106001,0.7155260547798887,-0.5668421454184789,0.4203555352101933
1499369106017,0.7193102922102694,-0.5604943923094527,0.4043640802624555
1499369106033,0.7451895933470665,-0.5303425650415807,0.39118028534370985
1499369106049,0.7373769741359579,-0.5285114824139772,0.3943541618982227
1499369106065,0.7213855191882201,-0.5392538338292514,0.39533073929961127
1499369106081,0.7042954146639202,-0.5585412375066756,0.4044861524376291
1499369106097,0.7110093842984666,-0.5834439612420845,0.41132219424734906
1499369106113,0.7377431906614786,-0.5791714351110095,0.4149843595025562
1499369106129,0.7554436560616464,-0.5473105973907071,0.4064393072404062
1499369106145,0.7903562981612877,-0.5137407492179751,0.3969176775768677
1499369106161,0.7799801632715342,-0.5199664301518272,0.393133440146487
1499369106177,0.7812008850232699,-0.5298542763408864,0.4048523689631498
1499369106193,0.8550545510032803,-0.5016556038757916,0.4246280613412683
1499369106209,0.8268558785381854,-0.5542687113756006,0.4456244754711225
1499369106225,0.6624246585793854,-0.5612268253604942,0.45917448691538887
1499369106241,0.6017547875181197,-0.5635461966887925,0.48615243762874805
1499369106257,0.7110093842984666,-0.5856412603952088,0.44623483634699035
1499369106273,0.6851300831616696,-0.5744106202792403,0.41339742122529977
1499369106289,0.6914778362706953,-0.5504844739452199,0.4052185854886705
1499369106305,0.7146715495536737,-0.5373006790264743,0.40094605935759553
1499369106321,0.7217517357137408,-0.5344930189974821,0.38239108873121275
1499369106337,0.7571526665140764,-0.5363241016250857,0.37567711909666635
1499369106353,0.7938963912413213,-0.5315632867933164,0.3653009842069119
1499369106369,0.6609597924773025,-0.43256275272754996,0.4116884107728698
1499369106385,0.7837644007019149,-0.5443808651865414,0.43659113450827824
1499369106401,0.7172350652323187,-0.5338826581216143,0.43060959792477327
1499369106417,0.7256580453192951,-0.5313191424429693,0.422430762188144
1499369106433,0.780590524147402,-0.49579613946746015,0.44489204242008107
1499369106449,0.8106202792401005,-0.4984817273212787,0.42401770046540044
1499369106465,0.7892576485847256,-0.5069047074082551,0.40680552376592694
1499369106481,0.7681391622796978,-0.522285801480125,0.39545281147478484
1499369106497,0.7816891737239642,-0.5228961623559929,0.3855649652857256
1499369106513,0.7810788128480963,-0.5287556267643243,0.3842221713588163
1499369106529,0.7777828641184099,-0.5294880598153657,0.3883726253147177
1499369106546,0.7510490577553979,-0.5300984206912336,0.39752803845273554
1499369106562,0.7345693141069658,-0.5187457084000915,0.4094911116197455
1499369106578,0.7063706416418709,-0.5149614709697108,0.4270695048447397
1499369106594,0.706614785992218,-0.5209430075532158,0.4346379797055011
1499369106610,0.7350576028076601,-0.5238727397573815,0.42731364919508685
1499369106626,0.7486076142519265,-0.5365682459754328,0.43060959792477327
1499369106642,0.7614251926451514,-0.5423056382085907,0.42938887617303756
1499369106658,0.7525139238574807,-0.523994811932555,0.4236514839398797
1499369106674,0.7434805828946365,-0.5011673151750973,0.4289005874723433
1499369106690,0.7588616769665064,-0.5081254291599908,0.42938887617303756
1499369106706,0.7727779049362935,-0.4939650568398566,0.4236514839398797
1499369106722,0.7738765545128556,-0.503242542153048,0.4246280613412683
1499369106738,0.7514152742809186,-0.5016556038757916,0.44415960936903964
1499369106754,0.7501945525291829,-0.5036087586785687,0.4603952086671246
1499369106770,0.7372549019607844,-0.5143511100938429,0.4623483634699017
1499369106786,0.7351796749828337,-0.5203326466773479,0.45917448691538887
1499369106802,0.7551995117112993,-0.5182574196993972,0.43732356755931967
1499369106818,0.7924315251392384,-0.5127641718165865,0.4177920195315483
1499369106834,0.7617914091706721,-0.49542992294193944,0.4220645456626233
1499369106850,0.723704890516518,-0.4867627985046159,0.4557564660105289
1499369106866,0.7190661478599223,-0.5099565117875944,0.4738231479362174
1499369106882,0.7019760433356224,-0.5047074082551308,0.4914015411612116
1499369106898,0.7381094071869994,-0.5177691309987029,0.4901808194094759
1499369106914,0.7373769741359579,-0.510078583962768,0.47687495231555665
1499369106930,0.7440909437705043,-0.5108110170138094,0.47614251926451523
1499369106946,0.7361562523842222,-0.4977492942702373,0.4809033340962845
1499369106962,0.719432364385443,-0.49958037689784085,0.47150377660791953
1499369106978,0.7490959029526207,-0.49152361333638517,0.45831998168917387
1499369106994,0.7565423056382086,-0.49115739681086446,0.47357900358587024
1499369107010,0.7229724574654766,-0.507515068284123,0.49530785076676587
1499369107026,0.7047837033646145,-0.5167925535973144,0.5139848935683222
1499369107042,0.714305333028153,-0.49701686121919586,0.5171587701228351
1499369107058,0.7000228885328452,-0.4939650568398566,0.5138628213931486
1499369107074,0.6612039368276497,-0.49628442816815443,0.5363241016250857
1499369107090,0.6413061722743576,-0.510078583962768,0.5554894331273363
1499369107106,0.655710688944839,-0.5127641718165865,0.5598840314335849
1499369107122,0.6596169985503932,-0.5112993057145037,0.5674525062943463
1499369107138,0.648020141908904,-0.5056839856565194,0.569527733272297
1499369107154,0.6555886167696654,-0.5011673151750973,0.569527733272297
1499369107170,0.6736552986953539,-0.5026321812771801,0.5657434958419163
1499369107186,0.681589990081636,-0.49701686121919586,0.5628137636377506
1499369107202,0.6742656595712218,-0.4896925307087816,0.5602502479591056
1499369107218,0.6752422369726103,-0.48688487067978947,0.561837186236362
1499369107234,0.7079575799191273,-0.4838330663004502,0.5492637521934842
1499369107250,0.677317463950561,-0.4843213550011445,0.5579308766308078
1499369107266,0.6701152056153203,-0.49579613946746015,0.561837186236362
1499369107282,0.6769512474250403,-0.4997024490730144,0.5634241245136185
1499369107298,0.6891584649423974,-0.5010452429999237,0.5548790722514685
1499369107314,0.679026474402991,-0.4994583047226673,0.5523155565728235
1499369107330,0.6729228656443125,-0.4934767681391623,0.5525597009231706
1499369107346,0.6719462882429239,-0.48664072632944233,0.5560997940032042
1499369107362,0.6770733196002139,-0.49250019073777374,0.5569542992294192
1499369107378,0.6787823300526439,-0.5008010986495766,0.5595178149080642
1499369107394,0.6723125047684446,-0.5091020065613794,0.5545128557259478
1499369107410,0.6598611429007404,-0.504951552605478,0.5537804226749063
1499369107426,0.674753948271916,-0.494697489890898,0.5573205157549399
1499369107442,0.6889143205920503,-0.4863965819790952,0.555855649652857
1499369107458,0.6883039597161824,-0.4889600976577402,0.5613488975356677
1499369107474,0.6826886396581981,-0.4935988403143359,0.5634241245136185
1499369107490,0.6853742275120167,-0.498115510795758,0.5629358358129242
1499369107506,0.6749980926222632,-0.5021438925764858,0.561837186236362
1499369107522,0.6746318760967425,-0.4984817273212787,0.5593957427328906
1499369107538,0.6644998855573361,-0.4834668497749295,0.5570763714045928
1499369107554,0.6674296177615018,-0.4837109941252766,0.560128175783932
1499369107570,0.6729228656443125,-0.4988479438467994,0.5674525062943463
1499369107586,0.6612039368276497,-0.505806057831693,0.5788052185854884
1499369107602,0.6552224002441447,-0.500679026474403,0.5769741359578848
1499369107618,0.6660868238345925,-0.49445334554055087,0.5739223315785456
1499369107634,0.6563210498207068,-0.49420920119020373,0.5769741359578848
1499369107650,0.6301976043335626,-0.48822766460669875,0.5810025177386127
1499369107666,0.6314183260852984,-0.48322270542458234,0.5885709925993741
1499369107682,0.6210421911955439,-0.5088578622110322,0.5863736934462498
1499369107698,0.7013656824597545,-0.5298542763408864,0.5841763942931255
1499369107714,0.7025864042114902,-0.5512169069962614,0.5596398870832378
1499369107730,0.6999008163576717,-0.5545128557259478,0.5225299458304722
1499369107746,0.717723353933013,-0.5387655451285571,0.5088578622110322
1499369107762,0.7609369039444571,-0.5149614709697108,0.47516594186312666
1499369107778,0.7642328526741435,-0.498970016021973,0.46100556954299243
1499369107794,0.7451895933470665,-0.4682078278782331,0.47016098268101025
1499369107810,0.7267566948958573,-0.45331502250705746,0.4813916227969788
1499369107826,0.7086900129701688,-0.4641794460975053,0.48786144808117804
1499369107842,0.6956282902265967,-0.4712596322575724,0.49787136644541086
1499369107858,0.6767071030746932,-0.47602044708934166,0.5081254291599908
1499369107874,0.659128709849699,-0.48493171587701234,0.5305867093919279
1499369107890,0.6586404211490047,-0.4910353246356909,0.5546349279011213
1499369107906,0.6543678950179297,-0.4976272220950637,0.5573205157549399
1499369107922,0.6181124589913782,-0.49372091248950944,0.5753871976806284
1499369107939,0.6341039139391169,-0.5104448004882887,0.5833218890669105
1499369107955,0.6388647287708862,-0.5143511100938429,0.5852750438696877
1499369107971,0.6554665445944918,-0.5076371404592965,0.5886930647745476
1499369107987,0.6593728542000461,-0.5037308308537423,0.5934538796063169
1499369108003,0.6541237506675825,-0.4984817273212787,0.595407034409094
1499369108019,0.6439917601281762,-0.4993362325474937,0.5833218890669105
1499369108035,0.6640115968566418,-0.501533531700618,0.5799038681620505
1499369108051,0.682444495307851,-0.5054398413061723,0.5637903410391392
1499369108067,0.696116578927291,-0.5026321812771801,0.5554894331273363
1499369108083,0.6864728770885788,-0.4976272220950637,0.5493858243686578
1499369108099,0.6717021438925768,-0.49323262378881516,0.5534142061493856
1499369108115,0.672190432593271,-0.4950637064164187,0.5565880827038985
1499369108131,0.6853742275120167,-0.49921416037232014,0.5543907835507742
1499369108147,0.6784161135271232,-0.49921416037232014,0.5529259174486914
1499369108163,0.6669413290608075,-0.5011673151750973,0.5557335774776835
1499369108179,0.6780498970016025,-0.504097047379263,0.5559777218280306
1499369108195,0.6693827725642789,-0.4893263141832609,0.560128175783932
1499369108211,0.673899443045701,-0.5004348821240558,0.5680628671702141
1499369108227,0.6753643091477839,-0.5047074082551308,0.5657434958419163
1499369108243,0.6707255664911882,-0.5054398413061723,0.558419165331502
1499369108259,0.674753948271916,-0.5004348821240558,0.556710154879072
1499369108275,0.6618142977035175,-0.4950637064164187,0.5539024948500799
1499369108291,0.6814679179064624,-0.502388036926833,0.5563439383535513
1499369108307,0.7009994659342338,-0.49579613946746015,0.5377889677271686
1499369108323,0.7028305485618374,-0.4855420767528802,0.5326619363698786
1499369108339,0.6835431448844131,-0.49457541771572444,0.5560997940032042
1499369108355,0.652292668039979,-0.5119096665903715,0.5613488975356677
1499369108371,0.6018768596932933,-0.4914015411612116,0.5917448691538869
1499369108387,0.6424048218509197,-0.5271686884870679,0.6019989318684669
1499369108403,0.6547341115434504,-0.4783398184176395,0.5800259403372241
1499369108419,0.6699931334401468,-0.47895017929350736,0.5857633325703819
1499369108435,0.6684061951628903,-0.4922560463874266,0.5808804455634391
1499369108451,0.6575417715724425,-0.5061722743572137,0.5813687342641334
1499369108467,0.6638895246814682,-0.5059281300068665,0.5648889906157013
1499369108483,0.6885481040665296,-0.4997024490730144,0.5480430304417485
1499369108499,0.713450827801938,-0.49909208819714657,0.5347371633478293
1499369108515,0.713450827801938,-0.49042496375982303,0.5250934615091172
1499369108531,0.6981918059052417,-0.49457541771572444,0.5307087815671014
1499369108547,0.6905012588693067,-0.4943312733653773,0.5293659876401922
1499369108563,0.7068589303425652,-0.48358892195010306,0.5138628213931486
1499369108579,0.7180895704585337,-0.492133974212253,0.5053177691309987
1499369108595,0.7373769741359579,-0.4898146028839552,0.494697489890898
1499369108611,0.7366445410849165,-0.4767528801403831,0.4838330663004502
1499369108627,0.710887312123293,-0.4901808194094759,0.4956740672922866
1499369108643,0.7283436331731137,-0.5031204699778744,0.4951857785915923
1499369108659,0.759838254367895,-0.4914015411612116,0.47614251926451523
1499369108675,0.7702143892576485,-0.47943846799420164,0.460273136491951
1499369108691,0.7438467994201572,-0.47638666361486237,0.467109178301671
1499369108707,0.7360341802090486,-0.4874952315556573,0.4652780956740674
1499369108723,0.754711223010605,-0.4871290150301366,0.4540474555580989
1499369108739,0.7442130159456779,-0.48151369497215235,0.4552681773098346
1499369108755,0.7398184176394293,-0.4898146028839552,0.46308079652094314
1499369108771,0.7576409552147707,-0.4967727168688487,0.4657663843747617
1499369108787,0.7711909666590371,-0.48480964370183877,0.45465781643396674
1499369108803,0.7617914091706721,-0.48151369497215235,0.45722133211261173
1499369108819,0.7603265430685893,-0.49372091248950944,0.4589303425650417
1499369108835,0.7696040283817807,-0.498115510795758,0.44867627985046177
1499369108851,0.7722896162355992,-0.4956740672922866,0.4459906919966432
1499369108867,0.7291981383993287,-0.4766308079652095,0.4603952086671246
1499369108883,0.7210193026626994,-0.4800488288700695,0.46210421911955457
1499369108899,0.7611810482948043,-0.4889600976577402,0.43402761882963325
1499369108915,0.7920653086137177,-0.49579613946746015,0.4158388647287712
1499369108931,0.7869382772564277,-0.49542992294193944,0.42194247348744973
1499369108947,0.7738765545128556,-0.4917677576867323,0.4291447318226904
1499369108963,0.764965285725185,-0.4846875715266652,0.43781185626001395
1499369108979,0.7456778820477608,-0.4807812619211109,0.4435492484931718
1499369108995,0.7527580682078279,-0.4881055924315252,0.4422064545662625
1499369109011,0.7687495231555657,-0.4979934386205844,0.4329289692530711
1499369109027,0.7820553902494849,-0.49079118028534374,0.4157167925535976
1499369109043,0.792553597314412,-0.4831006332494088,0.4053406576638441
1499369109059,0.7819333180743113,-0.47724116884107737,0.39581902800030555
1499369109075,0.782299534599832,-0.47772945754177165,0.3950865949492641
1499369109091,0.7799801632715342,-0.4778515297169452,0.3994811932555127
1499369109107,0.7685053788052185,-0.4738231479362174,0.4122987716487376
1499369109123,0.7813229571984435,-0.4741893644617381,0.42560463874265686
1499369109139,0.8001220721751734,-0.47980468451972236,0.4184023804074162
1499369109155,0.7609369039444571,-0.4829785610742352,0.4196231021591519
1499369109171,0.742748149843595,-0.4863965819790952,0.4408636606393532
1499369109187,0.7516594186312657,-0.4968947890440223,0.4401312275883118
1499369109203,0.7396963454642558,-0.5016556038757916,0.44831006332494105
1499369109219,0.744457160296025,-0.49079118028534374,0.4597848477912567
1499369109235,0.7644769970244907,-0.4791943236438545,0.46222629129472814
1499369109251,0.7697261005569542,-0.47357900358587024,0.44953078507667676
1499369109267,0.7472648203250172,-0.4767528801403831,0.45416952773327246
1499369109283,0.7515373464560922,-0.48102540627145807,0.45087357900358604
1499369109300,0.7639887083237964,-0.47724116884107737,0.4418402380407418
1499369109316,0.7772945754177156,-0.4719920653086138,0.4430609597924775
1499369109332,0.7754634927901121,-0.47431143663691167,0.45038529030289176
1499369109348,0.7620355535210193,-0.48273441672388806,0.4573434042877853
1499369109364,0.7489738307774472,-0.48737315938048376,0.46051728084229815
1499369109380,0.7622796978713664,-0.49042496375982303,0.46381322957198456
1499369109396,0.7880369268329899,-0.4793163958190281,0.4384222171358818
1499369109412,0.7741206988632028,-0.4859082932784009,0.43280689707789755
1499369109428,0.7578850995651178,-0.4784618905928131,0.4446478980697339
1499369109444,0.7655756466010528,-0.46686503395132384,0.430121309224079
1499369109460,0.8356450751506825,-0.460273136491951,0.4010681315327691
1499369109476,0.8546883344777596,-0.4490424963759825,0.3980163271534298
1499369109492,0.8294193942168304,-0.4640573739223317,0.4052185854886705
1499369109508,0.7455558098725872,-0.49835965514610514,0.392278934920272
1499369109524,0.7804684519722285,-0.49750514991989014,0.3435721370260163
1499369109540,0.8272220950637061,-0.4627145799954224,0.2885175860227358
1499369109556,0.8629892423895624,-0.3967956054016937,0.279362172884718
1499369109572,0.8679942015716788,-0.3825131609063859,0.27704280155642014
1499369109588,0.8522468909742882,-0.36237125200274667,0.2985275043869686
1499369109604,0.8560311284046689,-0.3925230792706187,0.31610589761196284
1499369109620,0.8650644693675131,-0.4135194934004729,0.3191577019913021
1499369109636,0.8460212100404361,-0.4353704127565421,0.32611581597619566
1499369109652,0.8448004882887004,-0.4369573510337985,0.3229419394216828
1499369109668,0.8800793469138632,-0.3854428931105516,0.3783627069504849
1499369109684,0.918287937743191,-0.42975509269855783,0.3838559548332956
1499369109700,0.8809338521400782,-0.43646906233310423,0.3847104600595106
1499369109716,0.7775387197680628,-0.41828030823224216,0.397405966277562
1499369109732,0.8194094758525976,-0.4276798657206071,0.35394827191576983
1499369109748,0.8007324330510412,-0.4514839398794539,0.35175097276264555
1499369109764,0.828686961165789,-0.4800488288700695,0.3327077134355685
1499369109780,0.7937743190661477,-0.43549248493171566,0.3523613336385134
1499369109796,0.8191653315022505,-0.4418402380407418,0.340520332646677
1499369109812,0.8347905699244675,-0.4276798657206071,0.3561455710688941
1499369109828,0.8567635614557103,-0.41168841077286933,0.3587090867475391
1499369109844,0.8640878919661246,-0.4059510185397115,0.3549248493171584
1499369109860,0.8430914778362704,-0.4240177004654,0.35345998321507555
1499369109876,0.8240482185091933,-0.4502632181277182,0.3574883649958034
1499369109892,0.8195315480277712,-0.46088349736781886,0.3783627069504849
1499369109908,0.830395971618219,-0.43903257801174966,0.39581902800030555
1499369109924,0.8463874265659568,-0.40656137941557935,0.3742122529945826
1499369109940,0.8224612802319369,-0.4055848020141908,0.3609063859006634
1499369109956,0.8500495918211639,-0.4444037537193868,0.36847486076142477
1499369109972,0.8170901045242998,-0.49286640726329445,0.3860532539864199
1499369109988,0.8407721065079725,-0.4627145799954224,0.37360189211871475
1499369110004,0.8245365072098876,-0.463691157396811,0.34125276569771845
1499369110020,0.8029297322041655,-0.43012130922407854,0.33832303349355275
1499369110036,0.7798580910963606,-0.42462806134126785,0.36188296330205194
1499369110052,0.7370107576104372,-0.45429159990844603,0.40045777065690125
1499369110068,0.7909666590371556,-0.5413290608072021,0.389715419241627
1499369110084,0.8047608148317691,-0.5133745326924544,0.3775082017242699
1499369110100,0.8186770428015562,-0.4721141374837874,0.39166857404440414
1499369110116,0.8090333409628441,-0.4473334859235525,0.37311360341802047
1499369110132,0.7958495460440984,-0.4590524147402153,0.35553521019302625
1499369110148,0.8087891966124969,-0.4666208896009767,0.33368429083695705
1499369110164,0.8004882887006941,-0.45465781643396674,0.33319600213626277
1499369110180,0.8169680323491262,-0.4286564431219957,0.3418631265735863
1499369110196,0.8439459830624854,-0.4133974212252993,0.347356374456397
1499369110212,0.8992446784161139,-0.41742580300602716,0.35687800411993553
1499369110228,0.9041275654230567,-0.4423285267414361,0.3565117875944148
1499369110244,0.877027542534524,-0.43183031967650853,0.349919890135042
1499369110260,0.8462653543907832,-0.4352483405813685,0.33746852826733775
1499369110276,0.7946288242923627,-0.428290226596475,0.34381628137636344
1499369110292,0.8189211871519033,-0.41962310215915144,0.35761043717097696
1499369110308,0.8384527351796747,-0.43085374227511997,0.3590753032730598
1499369110324,0.8532234683756768,-0.4345159075303271,0.3548027771419848
1499369110340,0.8488288700694282,-0.4447699702449075,0.3548027771419848
1499369110356,0.8452887769893946,-0.4452582589456018,0.3443045700770577
1499369110372,0.8361333638513768,-0.43170824750133496,0.3361257343404285
1499369110388,0.8267338063630119,-0.42133211261158143,0.34088654917219774
1499369110404,0.8394293125810632,-0.4238956282902264,0.34540321965361986
1499369110420,0.8415045395590139,-0.42426184481574714,0.3556572823681998
1499369110436,0.8382085908293275,-0.42877851529716926,0.36432440680552336
1499369110452,0.8430914778362704,-0.4423285267414361,0.36823071641107763
1499369110468,0.8313725490196076,-0.4518501564049746,0.36444647898069693
1499369110484,0.8316166933699547,-0.4481879911497675,0.35419241626611697
1499369110500,0.8318608377203018,-0.4414740215152211,0.34125276569771845
1499369110516,0.8366216525520711,-0.4312199588006407,0.33746852826733775
1499369110532,0.8399176012817575,-0.42206454566262286,0.3411306935225449
1499369110548,0.8495613031204696,-0.41718165865568,0.34637979705500843
1499369110564,0.8510261692225525,-0.4238956282902264,0.35675593194476196
1499369110580,0.8478522926680396,-0.42755779354543355,0.36017395284962195
1499369110596,0.8401617456321047,-0.43671320668345137,0.3612726024261841
1499369110612,0.834668497749294,-0.4370794232089721,0.36224917982757265
1499369110628,0.8291752498664833,-0.4353704127565421,0.3590753032730598
1499369110644,0.828686961165789,-0.4343938353551535,0.3511406118867777
1499369110660,0.8345464255741204,-0.4336614023041121,0.3466239414053556
1499369110676,0.8444342717631796,-0.4268253604943921,0.3504081788357363
1499369110692,0.8444342717631796,-0.42926680399786354,0.35724422064545625
1499369110709,0.8246585793850612,-0.4375677119096668,0.3582207980468448
1499369110725,0.8236820019836726,-0.43830014496070824,0.3544365606164641
1499369110741,0.8317387655451283,-0.4358587014572364,0.343938353551537
1499369110757,0.8423590447852289,-0.42548256656748284,0.33746852826733775
1499369110773,0.850293736171511,-0.4218204013122757,0.3402761882963299
1499369110789,0.8485847257190811,-0.4173037308308536,0.3432059205004956
1499369110805,0.8405279621576254,-0.42169832913710215,0.3535820553902491
1499369110821,0.8399176012817575,-0.43085374227511997,0.3600518806744484
1499369110837,0.8424811169604025,-0.43476005188067424,0.3578545815213241
1499369110853,0.8527351796749825,-0.4312199588006407,0.34552529182879343
1499369110869,0.8506599526970318,-0.4186465247577629,0.34259555962462773
1499369110885,0.8894789044022282,-0.4148622873273822,0.35126268406195127
1499369110901,0.8914320592050053,-0.4042420080872815,0.3762874799725342
1499369110917,0.8267338063630119,-0.4256046387426564,0.4132753490501262
1499369110933,0.8404058899824518,-0.4093690394445715,0.4557564660105289
1499369110949,0.7963378347447927,-0.4589303425650417,0.4831006332494088
1499369110965,0.7550774395361257,-0.4741893644617381,0.4888380254825666
1499369110981,0.7975585564965284,-0.4757763027389945,0.4855420767528802
1499369110997,0.7425040054932479,-0.49408712901503016,0.4956740672922866
1499369111013,0.6828107118333717,-0.5137407492179751,0.4404974441138325
1499369111029,0.7465323872739758,-0.462836652170596,0.39069199664301557
1499369111045,0.797680628671702,-0.43390554665445924,0.3793392843518735
1499369111061,0.7693598840314335,-0.3811703669794766,0.4263370717936983
1499369111077,0.7820553902494849,-0.33014419775692394,0.44708934157320535
1499369111093,0.8300297550926983,-0.2587319752803845,0.4320744640268561
1499369111109,0.8697032120241088,-0.09503318837262542,0.5313191424429693
1499369111125,1.0481727321278704,-0.2675211718928816,0.4137636377508205
1499369111141,0.8220950637064162,-0.23273060196841389,0.4501411459525446
1499369111157,0.8173342488746469,-0.2781414511329823,0.4137636377508205
1499369111173,0.8769054703593504,-0.2595864805065995,0.4204776073853669
1499369111189,0.9949492637521935,-0.24457160296025027,0.42560463874265686
1499369111205,1.0110627908751049,-0.1957427328908219,0.43451590753032754
1499369111221,0.8174563210498205,-0.2100251773861297,0.5084916456855115
1499369111237,0.7000228885328452,-0.23920042725261315,0.5413290608072021
1499369111253,0.7265125505455101,-0.243228809033341,0.6027313649195083
1499369111269,0.8026855878538184,-0.28998245212481866,0.5918669413290605
1499369111285,0.800244144350347,-0.3202563515678647,0.5863736934462498
1499369111301,0.7584954604409857,-0.32880140383001466,0.6117647058823525
1499369111317,0.7611810482948043,-0.32245365072098897,0.6050507362478061
1499369111333,0.7534905012588693,-0.34906538490882744,0.5946746013580526
1499369111349,0.7697261005569542,-0.3244068055237661,0.572091248950942
1499369111365,0.7636224917982757,-0.321599145494774,0.5913786526283662
1499369111381,0.7943846799420156,-0.36884107728694593,0.5554894331273363
1499369111397,0.7410391393911651,-0.37213702601663234,0.5608606088349735
1499369111413,0.7390859845883879,-0.3996032654306858,0.5535362783245592
1499369111429,0.7158922713054094,-0.4004577706569008,0.5515831235217821
1499369111445,0.7080796520943009,-0.40741588464179435,0.5498741130693521
1499369111461,0.7031967650873581,-0.4142519264515143,0.5420614938582435
1499369111477,0.7144274052033266,-0.4227969787136643,0.5305867093919279
1499369111493,0.7226062409399558,-0.4173037308308536,0.5249713893339436
1499369111509,0.75727473868925,-0.3915465018692301,0.5199664301518272
1499369111525,0.7971923399710077,-0.3757991912718395,0.49066910811017017
1499369111541,0.7896238651102463,-0.37079423208972306,0.49750514991989014
1499369111557,0.7630121309224078,-0.37006179903868164,0.5089799343862058
1499369111573,0.761547264820325,-0.38226901655603873,0.522285801480125
1499369111589,0.7763179980163271,-0.38471046005951015,0.5305867093919279
1499369111605,0.7725337605859464,-0.3848325322346837,0.5340047302967879
1499369111621,0.7708247501335164,-0.3753109025711452,0.5355916685740443
1499369111637,0.7665522240024414,-0.3673762111848631,0.53168535896849
1499369111653,0.7803463797970549,-0.3638361181048295,0.5271686884870679
1499369111669,0.7713130388342107,-0.36957351033798735,0.5340047302967879
1499369111685,0.75043869687953,-0.38934920271610585,0.5515831235217821
1499369111701,0.7520256351567864,-0.4026550698100251,0.5585412375066756
1499369111717,0.7498283360036622,-0.3875181200885023,0.5622034027618827
1499369111733,0.7580071717402914,-0.37714198519874875,0.562691691462577
1499369111749,0.7554436560616464,-0.36200503547722596,0.5590295262073699
1499369111765,0.7587396047913328,-0.3638361181048295,0.5474326695658807
1499369111781,0.7733882658121614,-0.3714045929655909,0.537666895551995
1499369111797,0.7696040283817807,-0.37042801556420235,0.527412832837415
1499369111813,0.7384756237125201,-0.3782406347753109,0.5459678034637978
1499369111829,0.7222400244144351,-0.3933775844968337,0.5675745784695199
1499369111845,0.7365224689097429,-0.387029831387808,0.5681849393453877
1499369111861,0.7550774395361257,-0.37335774776836805,0.5629358358129242
1499369111877,0.7592278934920271,-0.3655451285572595,0.5526817730983442
1499369111893,0.7542229343099107,-0.36420233463035023,0.5485313191424428
1499369111909,0.7539787899595636,-0.37335774776836805,0.5576867322804606
1499369111925,0.7593499656672007,-0.3753109025711452,0.5631799801632713
1499369111941,0.7693598840314335,-0.37006179903868164,0.5593957427328906
1499369111957,0.7575188830395971,-0.36542305638208594,0.5520714122224764
1499369111973,0.7464103150988022,-0.36078431372549025,0.5542687113756006
1499369111989,0.7499504081788357,-0.3651789120317388,0.5480430304417485
1499369112005,0.7699702449073014,-0.3739681086442359,0.5341268024719614
1499369112021,0.7645990691996642,-0.3727473868925002,0.5371786068513007
1499369112037,0.7534905012588693,-0.385320820935378,0.5503624017700464
1499369112053,0.7676508735790035,-0.3987487602044708,0.5563439383535513
1499369112070,0.7686274509803921,-0.39191271839475084,0.5490196078431371
1499369112086,0.7619134813458457,-0.38226901655603873,0.5440146486610207
1499369112102,0.7516594186312657,-0.3694514381628138,0.5403524834058135
1499369112118,0.7448233768215458,-0.36420233463035023,0.5380331120775157
1499369112134,0.7577630273899443,-0.3622491798275731,0.5320515754940107
1499369112150,0.7665522240024414,-0.3648126955062181,0.5304646372167543
1499369112166,0.7609369039444571,-0.36322575722896167,0.53852140077821
1499369112182,0.7613031204699778,-0.3764095521477073,0.5497520408941785
1499369112198,0.7536125734340429,-0.38764019226367585,0.5534142061493856
1499369112214,0.7525139238574807,-0.3932555123216601,0.5502403295948728
1499369112230,0.7661860074769207,-0.38715190356298157,0.5394979781795985
1499369112246,0.7731441214618142,-0.37555504692149233,0.5305867093919279
1499369112262,0.7787594415197985,-0.3605401693751431,0.52314030670634
1499369112278,0.7764400701915006,-0.3591973754482338,0.5177691309987029
1499369112294,0.7724116884107728,-0.35700007629510955,0.5220416571297779
1499369112310,0.7841306172274356,-0.3618829633020524,0.5286335545891507
1499369112326,0.778027008468757,-0.3770199130235752,0.5476768139162278
1499369112342,0.7739986266880292,-0.3837338826581216,0.5495078965438314
1499369112358,0.76752880140383,-0.38556496528572515,0.5407186999313343
1499369112374,0.7678950179293507,-0.3828793774319066,0.5313191424429693
1499369112390,0.7672846570534828,-0.3714045929655909,0.5204547188525215
1499369112406,0.7705806057831692,-0.36408026245517666,0.5089799343862058
1499369112422,0.779736018921187,-0.3667658503089952,0.5105668726634622
1499369112438,0.7816891737239642,-0.37164873731593806,0.5178912031738765
1499369112454,0.7707026779583428,-0.38263523308155944,0.5216754406042572
1499369112470,0.7645990691996642,-0.3839780270084687,0.5208209353780422
1499369112486,0.7785152971694513,-0.3748226138704509,0.5145952544441901
1499369112502,0.7912108033875027,-0.36505683985656523,0.507515068284123
1499369112518,0.7918211642633706,-0.36029602502479596,0.5055619134813458
1499369112534,0.7893797207598992,-0.3588311589227131,0.5067826352330815
1499369112550,0.7815671015487906,-0.3715266651407645,0.5095902952620737
1499369112566,0.7786373693446249,-0.38519874876020443,0.5097123674372472
1499369112582,0.7680170901045242,-0.3911802853437094,0.5176470588235293
1499369112598,0.7796139467460135,-0.3837338826581216,0.5138628213931486
1499369112614,0.7864499885557334,-0.3736018921187152,0.5020218204013123
1499369112630,0.7853513389791713,-0.37250324254215306,0.4931105516136416
1499369112646,0.7937743190661477,-0.3703059433890288,0.4872510872053102
1499369112662,0.8256351567864497,-0.36993972686350807,0.4893263141832609
1499369112678,0.838941023880369,-0.3803158617532616,0.506660563057908
1499369112694,0.8543221179522389,-0.3589532310978867,0.5293659876401922
1499369112710,0.8668955519951167,-0.3576104371709774,0.48285648889906163
1499369112726,0.8068360418097198,-0.3286793316548411,0.5112993057145037
1499369112742,0.7969481956206605,-0.36908522163729307,0.48151369497215235
1499369112758,0.7738765545128556,-0.38226901655603873,0.4854200045777066
1499369112774,0.7022201876859695,-0.38800640878919657,0.5250934615091172
1499369112790,0.6797589074540324,-0.4404974441138325,0.5581750209811549
1499369112806,0.7370107576104372,-0.45587853818570245,0.5514610513466085
1499369112822,0.756420233463035,-0.4361028458075835,0.5022659647516594
1499369112838,0.6820782787823303,-0.39606317235065225,0.5394979781795985
1499369112854,0.677317463950561,-0.38214694438086516,0.5244831006332493
1499369112870,0.6552224002441447,-0.41083390554665433,0.5636682688639656
1499369112886,0.6499732967116811,-0.4434271763179982,0.6195773250934611
1499369112902,0.6165255207141218,-0.42584878309300356,0.6759746700236517
1499369112918,0.6193331807431139,-0.3941100175478751,0.694407568474861
1499369112934,0.5917448691538869,-0.3445487144274053,0.7046616311894409
1499369112950,0.606515602349889,-0.3239185168230718,0.7161364156557566
1499369112966,0.6063935301747154,-0.3223315785458154,0.7193102922102694
1499369112982,0.612497138933394,-0.314763103685054,0.718577859159228
1499369112998,0.5916227969787133,-0.2726482032501716,0.7284657053482873
1499369113014,0.5523155565728235,-0.2461585412375067,0.7749752040894178
1499369113030,0.5576867322804606,-0.2537270160982681,0.8153810940718698
1499369113046,0.5622034027618827,-0.26935225452048517,0.834668497749294
1499369113062,0.5656214236667427,-0.27826352330815585,0.8377203021286332
1499369113078,0.5578088044556342,-0.2840009155413137,0.8314946211947811
1499369113094,0.5338826581216143,-0.2876630807965208,0.834668497749294
1499369113110,0.5133745326924544,-0.2905928130006865,0.8495613031204696
1499369113126,0.5020218204013123,-0.305241474021515,0.8618905928130003
1499369113142,0.49872587167162585,-0.3219653620202947,0.8654306858930338
1499369113158,0.4762645914396888,-0.32843518730449395,0.8621347371633474
1499369113174,0.45636682688639674,-0.3291676203555354,0.8472419317921718
1499369113190,0.4778515297169452,-0.3408865491721982,0.8350347142748147
1499369113206,0.48993667505912875,-0.345769436179141,0.8139162279697869
1499369113222,0.49372091248950944,-0.3316090638590068,0.8026855878538184
1499369113238,0.5094682230869001,-0.32428473334859254,0.801953154802777
1499369113254,0.5148393987945372,-0.33136491950865965,0.8065918974593727
1499369113270,0.5413290608072021,-0.33392843518730464,0.7868162050812542
1499369113286,0.5362020294499121,-0.31573968108644257,0.7804684519722285
1499369113302,0.5425497825589378,-0.3312428473334861,0.7765621423666742
1499369113318,0.5698939497978177,-0.3438162813763639,0.7677729457541771
1499369113334,0.6321507591363398,-0.3395437552452889,0.7315175097276265
1499369113350,0.6327611200122076,-0.3299000534065768,0.7038071259632259
1499369113366,0.6210421911955439,-0.32587167162584896,0.7009994659342338
1499369113382,0.5974822613870447,-0.33514915693904035,0.7099107347219045
1499369113398,0.612497138933394,-0.34991989013504243,0.7217517357137408
1499369113414,0.6078583962767983,-0.3501640344853896,0.722850385290303
1499369113430,0.6322728313115134,-0.3727473868925002,0.7085679407949952
1499369113446,0.6674296177615018,-0.3856870374608987,0.6757305256733046
1499369113462,0.6829327840085453,-0.34772259098191816,0.642038605325399
1499369113479,0.682444495307851,-0.3312428473334861,0.6276340886549177
1499369113495,0.684153505760281,-0.35407034409094384,0.6359349965667205
1499369113511,0.6962386511024645,-0.38214694438086516,0.6305638208590834
1499369113527,0.7019760433356224,-0.3866636148622873,0.6098115510795754
1499369113543,0.7173571374074923,-0.3778744182497902,0.5802700846875712
1499369113559,0.7450675211718929,-0.38263523308155944,0.5590295262073699
1499369113575,0.7544670786602579,-0.3778744182497902,0.5330281528953993
1499369113591,0.7342030975814451,-0.3618829633020524,0.539375906004425
1499369113607,0.7594720378423743,-0.3588311589227131,0.5249713893339436
1499369113623,0.7844968337529563,-0.384466315709163,0.5233844510566872
1499369113639,0.7801022354467078,-0.41498435950255574,0.5302204928664072
1499369113655,0.7757076371404592,-0.4075379568169679,0.5194781414511329
1499369113671,0.7522697795071336,-0.40033569848172723,0.5219195849546043
1499369113687,0.7759517814908063,-0.3967956054016937,0.5253376058594643
1499369113703,0.7498283360036622,-0.3714045929655909,0.5382772564278628
1499369113719,0.749584191653315,-0.36749828336003665,0.5335164415960936
1499369113735,0.7791256580453192,-0.38886091401541156,0.5237506675822079
1499369113751,0.8245365072098876,-0.40485236896314936,0.48700694285496304
1499369113767,0.8042725261310748,-0.4013122758831158,0.48395513847562377
1499369113783,0.7648432135500114,-0.393011367971313,0.4956740672922866
1499369113799,0.7425040054932479,-0.40741588464179435,0.5217975127794308
1499369113815,0.7084458686198216,-0.46515602349889384,0.5476768139162278
1499369113831,0.8557869840543217,-0.4564888990615703,0.4855420767528802
1499369113847,0.9064469367513546,-0.3546807049668117,0.42731364919508685
1499369113863,0.672190432593271,-0.3866636148622873,0.5128862439917601
1499369113879,0.75898374914168,-0.44831006332494105,0.492988479438468
1499369113895,0.8068360418097198,-0.45917448691538887,0.4800488288700695
1499369113911,0.7531242847333486,-0.4746776531624324,0.4507515068284125
1499369113927,0.7724116884107728,-0.46564431219958813,0.43744563973449324
1499369113943,0.7621576256961928,-0.4501411459525446,0.4455024032959489
1499369113959,0.7892576485847256,-0.4314641031509878,0.43732356755931967
1499369113975,0.8225833524071104,-0.39642938887617296,0.42560463874265686
1499369113991,0.7580071717402914,-0.40778210116731506,0.4573434042877853
1499369114007,0.6989242389562831,-0.41449607080186146,0.48957045853360803
1499369114023,0.7423819333180743,-0.46186007476920743,0.507515068284123
1499369114039,0.7133287556267645,-0.492133974212253,0.5442587930113678
1499369114055,0.6999008163576717,-0.46808575570305955,0.5629358358129242
1499369114071,0.7578850995651178,-0.49079118028534374,0.5547570000762949
1499369114087,0.7892576485847256,-0.46515602349889384,0.5220416571297779
1499369114103,0.7759517814908063,-0.43183031967650853,0.5163042648966201
1499369114119,0.7665522240024414,-0.4210879682612343,0.5261921110856793
1499369114135,0.7804684519722285,-0.4192568856336307,0.5174029144731822
1499369114151,0.7097886625467309,-0.418036163881895,0.5578088044556342
1499369114167,0.6590066376745254,-0.41071183337148076,0.6055390249485004
1499369114183,0.5767299916075377,-0.4332951857785914,0.6691386282139318
1499369114199,0.4446478980697339,-0.41278706034943147,0.7531242847333486
1499369114215,0.48395513847562377,-0.491279468986038,0.7998779278248263
1499369114231,0.39496452277409055,-0.4426947432669568,0.7880369268329899
1499369114247,0.4874952315556573,-0.46564431219958813,0.7738765545128556
1499369114263,0.6233615625238418,-0.48285648889906163,0.727977416647593
1499369114279,0.6668192568856339,-0.5043411917296101,0.6347142748149848
1499369114295,0.7112535286488137,-0.4312199588006407,0.6105439841306168
1499369114311,0.7222400244144351,-0.44281681544213036,0.5541466392004271
1499369114327,0.7904783703364613,-0.42218661783779643,0.44916456855115605
1499369114343,0.8455329213397418,-0.4064393072404058,0.38617532616159345
1499369114359,0.8712901503013653,-0.42877851529716926,0.3600518806744484
1499369114375,0.8449225604638739,-0.43390554665445924,0.35053025101090984
1499369114391,0.7321278706034944,-0.4169375143053329,0.37616540779736063
1499369114407,0.8112306401159683,-0.42206454566262286,0.35016403448538913
1499369114423,0.8750743877317468,-0.39850461585412367,0.3297779812314028
1499369114439,0.8925307087815675,-0.3815365835049973,0.3385671778438999
1499369114455,0.7964599069199663,-0.46137178606851315,0.4070496681162741
1499369114471,0.6151827267872125,-0.46222629129472814,0.46637674525062955
1499369114487,0.7206530861371787,-0.44501411459525464,0.4968947890440223
1499369114503,0.820141908903639,-0.4219424734874493,0.49115739681086446
1499369114519,0.8499275196459903,-0.4190127412832836,0.4804150453955902
1499369114535,0.8313725490196076,-0.40521858548867007,0.4829785610742352
1499369114551,0.8157473105973905,-0.4025329976348515,0.4683299000534067
1499369114567,0.8423590447852289,-0.381902800030518,0.4452582589456018
1499369114583,0.8800793469138632,-0.4901808194094759,0.4389105058365761
1499369114599,0.8833752956435497,-0.44708934157320535,0.41339742122529977
1499369114615,0.8051270313572898,-0.42706950484473927,0.4578316929884796
1499369114631,0.7895017929350727,-0.4219424734874493,0.4574654764629589
1499369114647,0.7217517357137408,-0.4599069199664303,0.4581979095140003
1499369114663,0.7035629816128788,-0.5022659647516594,0.4528267338063632
1499369114679,0.7003891050583659,-0.5115434500648508,0.44574654764629607
1499369114695,0.7462882429236286,-0.4737010757610438,0.43622491798275753
1499369114711,0.7259021896696423,-0.4614938582436867,0.4480659189745939
1499369114727,0.7339589532310979,-0.45587853818570245,0.4485542076752882
1499369114743,0.7520256351567864,-0.4519722285801482,0.42865644312199613
1499369114759,0.7619134813458457,-0.44501411459525464,0.42011139085984617
1499369114775,0.8050049591821162,-0.4540474555580989,0.42352941176470615
1499369114791,0.8393072404058897,-0.42499427786678856,0.41766994735637475
1499369114807,0.7783932249942778,-0.40363164721141365,0.4564888990615703
1499369114823,0.7864499885557334,-0.4389105058365761,0.47150377660791953
1499369114840,0.7477531090257115,-0.4357366292820628,0.49323262378881516
1499369114856,0.7616693369954985,-0.45038529030289176,0.5047074082551308
1499369114872,0.75898374914168,-0.45758754863813245,0.5010452429999237
1499369114888,0.804516670481422,-0.45343709468223103,0.46588845654993527
1499369114904,0.8170901045242998,-0.4401312275883118,0.4564888990615703
1499369114920,0.7760738536659799,-0.4353704127565421,0.4771190966659038
1499369114936,0.7335927367055772,-0.4389105058365761,0.47992675669489593
1499369114952,0.7999999999999998,-0.4264591439688714,0.4451361867704282
1499369114968,0.7854734111543449,-0.42328526741435857,0.510933089188983
1499369114984,0.7505607690547036,-0.42059967956054,0.5121538109407187
1499369115000,0.7339589532310979,-0.42462806134126785,0.5414511329823757
1499369115016,0.6758525978484782,-0.44782177462424677,0.5824673838406955
1499369115032,0.7022201876859695,-0.46601052872510884,0.5939421683070112
1499369115048,0.7232166018158237,-0.47345693141069667,0.601388570992599
1499369115064,0.685008010986496,-0.44110780498970037,0.6371557183184562
1499369115080,0.5690394445716027,-0.42963302052338426,0.6769512474250403
1499369115096,0.3986266880292977,-0.4092469672693979,0.821850919356069
1499369115112,0.45343709468223103,-0.53510337987335,0.708323796444648
1499369115128,0.5473105973907071,-0.42035553521019287,0.6657206073090718
1499369115144,0.5741664759288927,-0.4329289692530707,0.6868390936140996
1499369115160,0.6035858701457233,-0.46515602349889384,0.7184557869840544
1499369115176,0.6229953459983211,-0.46894026092927454,0.7020981155107959
1499369115192,0.6430151827267876,-0.47907225146868093,0.6623025864042118
1499369115208,0.6399633783474483,-0.4678416113527124,0.609079118028534
1499369115224,0.7078355077439538,-0.4374456397344928,0.5698939497978177
1499369115240,0.7400625619897765,-0.4370794232089721,0.5565880827038985
1499369115256,0.7306630045014115,-0.4396429388876175,0.5553673609521628
1499369115272,0.7029526207370109,-0.4365911345082778,0.5467002365148392
1499369115288,0.6845197222858017,-0.4361028458075835,0.5586633096818492
1499369115304,0.6786602578774703,-0.44452582589456036,0.5862516212710762
1499369115320,0.6874494544899674,-0.47394522011139095,0.581490806439307
1499369115336,0.6706034943160146,-0.47528801403830023,0.5775844968337527
1499369115352,0.6812237735561153,-0.4826123445487145,0.5811245899137862
1499369115368,0.7044174868390938,-0.47064927138170454,0.5753871976806284
1499369115384,0.7055161364156559,-0.4581979095140003,0.5705043106736856
1499369115400,0.687571526665141,-0.44831006332494105,0.5554894331273363
1499369115416,0.6800030518043796,-0.44379339284351893,0.544502937361715
1499369115432,0.7068589303425652,-0.4489204242008089,0.5446250095368885
1499369115448,0.7217517357137408,-0.45880827038986816,0.5474326695658807
1499369115464,0.7210193026626994,-0.46100556954299243,0.5432822156099792
1499369115480,0.7133287556267645,-0.458564126039521,0.5473105973907071
1499369115496,0.7130846112764173,-0.45929655909056244,0.5436484321355
1499369115512,0.7176012817578394,-0.4599069199664303,0.53852140077821
1499369115528,0.7178454261081866,-0.4607614251926453,0.53852140077821
1499369115544,0.7075913633936066,-0.4589303425650417,0.5430380712596321
1499369115560,0.7073472190432595,-0.4597848477912567,0.5473105973907071
1499369115576,0.715159838254368,-0.4632028686961167,0.5420614938582435
1499369115592,0.7129625391012437,-0.4664988174258031,0.5425497825589378
1499369115608,0.7138170443274587,-0.46637674525062955,0.5425497825589378
1499369115624,0.7088120851453423,-0.46588845654993527,0.5390096894789043
1499369115640,0.7058823529411766,-0.463691157396811,0.5335164415960936
1499369115656,0.7051499198901352,-0.4657663843747617,0.5343709468223086
1499369115672,0.7057602807660031,-0.4640573739223317,0.5307087815671014
1499369115688,0.7005111772335395,-0.46430151827267885,0.5335164415960936
1499369115704,0.6996566720073245,-0.4724803540093081,0.5408407721065078
1499369115720,0.7063706416418709,-0.48322270542458234,0.5438925764858471
1499369115736,0.7002670328831924,-0.4859082932784009,0.5496299687190049
1499369115752,0.6933089188982988,-0.4746776531624324,0.5547570000762949
1499369115768,0.6939192797741667,-0.4616159304188603,0.5557335774776835
1499369115784,0.7103990234225988,-0.4599069199664303,0.5488975356679635
1499369115800,0.7167467765316244,-0.46295872434576957,0.5559777218280306
1499369115816,0.7005111772335395,-0.4862745098039216,0.578927290760662
1499369115832,0.6940413519493402,-0.48444342717631805,0.5839322499427784
1499369115848,0.6818341344319832,-0.48358892195010306,0.5530479896238649
1499369115864,0.7075913633936066,-0.46771953917753883,0.49164568551155874
1499369115880,0.6620584420538647,-0.43341725795376496,0.5053177691309987
1499369115896,0.649729152361334,-0.4413519493400475,0.5435263599603264
1499369115912,0.6660868238345925,-0.4732127870603495,0.5665980010681313
1499369115928,0.7068589303425652,-0.5050736247806515,0.5687953002212556
1499369115944,0.7410391393911651,-0.5452353704127564,0.5481651026169221
1499369115960,0.6797589074540324,-0.5235065232318608,0.5611047531853206
1499369115976,0.5534142061493856,-0.4247501335164414,0.6212863355458911
1499369115992,0.6509498741130697,-0.5473105973907071,0.6033417257953761
1499369116008,0.6593728542000461,-0.4993362325474937,0.5759975585564963
1499369116024,0.6196993972686347,-0.49079118028534374,0.5889372091248948
1499369116040,0.6425268940260933,-0.4791943236438545,0.6033417257953761
1499369116056,0.7005111772335395,-0.4674753948271917,0.6145723659113447
1499369116072,0.7235828183413444,-0.45844205386434744,0.5766079194323641
1499369116088,0.6975814450293738,-0.45551232166018174,0.5479209582665749
1499369116104,0.7156481269550623,-0.4657663843747617,0.5192339971007858
1499369116120,0.74189364461738,-0.4804150453955902,0.49286640726329445
1499369116136,0.7411612115663386,-0.48236820019836735,0.48493171587701234
1499369116152,0.7132066834515909,-0.4812695506218052,0.4939650568398566
1499369116168,0.7052719920653088,-0.4812695506218052,0.5061722743572137
1499369116184,0.709178301670863,-0.48285648889906163,0.5227740901808193
1499369116200,0.7167467765316244,-0.49457541771572444,0.5226520180056458
1499369116216,0.7355458915083544,-0.49750514991989014,0.5112993057145037
1499369116232,0.7361562523842222,-0.48651865415426876,0.5132524605172808
1499369116249,0.7362783245593958,-0.46979476615548954,0.508369573510338
