Timestamp (ms),Gyro X (°/s),Gyro Y (°/s),Gyro Z (°/s)
1499369089782,1.8005645838102282,4.974441138323073,7.904173342488775
1499369089798,4.119935912108076,-4.669260700389032,7.17174029144735
1499369089814,6.500343327992596,-19.745174334325156,6.9886320286868795
1499369089830,8.087281605249018,-36.4690623331046,7.049668116273779
1499369089846,9.246967269398056,-44.95307850766767,8.697642481116873
1499369089862,11.810482948043045,-44.28168154421314,11.810482948043045
1499369089878,15.350576028076603,-44.70893415732053,16.876478217746126
1499369089894,18.76859693293659,-47.51659418631266,21.942473487449433
1499369089910,22.125581750209676,-50.01907377737098,25.05531395437538
1499369089926,23.590447852292527,-48.554207675288126,25.787747005416804
1499369089942,21.27107652399468,-41.71816586556815,25.909819180590375
1499369089958,18.82963302052326,-34.45487144274057,26.459143968871558
1499369089974,19.80621042191183,-33.66140230411247,29.32784008545036
1499369089990,20.477607385366582,-32.6848249027239,32.379644464789635
1499369090006,19.9893186846723,-27.130540932326085,35.49248493171581
1499369090022,17.120622568093268,-18.280308232242305,37.32356755931937
1499369090038,10.955977721828049,-8.819714656290444,37.689784084840085
1499369090054,7.049668116273779,2.5940337224383256,35.004196231021524
1499369090070,7.232776379034021,8.392462043183059,33.783474479285815
1499369090086,11.07804989700162,8.51453421835663,32.31860837720296
1499369090102,13.153276874952326,8.941786831464015,30.792706187533213
1499369090118,11.505302510109004,7.660028992141633,29.449912260623933
1499369090134,8.758678568703772,5.462729839017356,26.39810788128466
1499369090150,4.42511635004189,8.819714656290444,21.820401312275862
1499369090166,0.5798428320745188,16.998550392919697,16.937514305333025
1499369090182,-1.4343480582895154,24.01770046540014,12.23773556115043
1499369090198,-1.6784924086366573,21.33211261158158,8.575570305943302
1499369090214,0.5188067444876197,5.706874189364498,5.889982452124741
1499369090230,1.1902037079423735,1.0681315327688026,2.7771419851987957
1499369090246,1.0070954451819034,3.875791561760934,2.532997634851654
1499369090262,0.8239871824216607,6.256198977645454,2.5940337224383256
1499369090278,-0.03051804379333589,8.758678568703772,2.8992141603723667
1499369090294,-1.9226367589837992,12.054627298390187,4.547188525215461
1499369090310,-2.3498893720911838,11.871519035629717,4.9134050507361735
1499369090326,-1.4953841458761872,8.697642481116873,3.997863736934505
1499369090342,-0.213626306553806,6.317235065232353,2.9602502479590385
1499369090358,1.0070954451819034,4.730296787975931,2.532997634851654
1499369090374,1.1291676203554744,3.6316472114137923,2.105745021744042
1499369090390,0.213626306553806,4.180971999694748,1.983672846570471
1499369090406,-0.5188067444876197,4.42511635004189,1.8616006713969
1499369090422,-0.7629510948347615,4.42511635004189,1.3122758831159445
1499369090438,-0.5798428320745188,3.0823224231326094,0.5798428320745188
1499369090454,0.03051804379333589,0.6408789196611906,0.9460593575952316
1499369090470,-0.09155413138023505,0.5798428320745188,1.739528496223329
1499369090486,-0.9460593575952316,2.9602502479590385,2.227817196917613
1499369090502,-1.3122758831159445,4.60822461280236,2.4719615472647547
1499369090518,-1.3122758831159445,4.9134050507361735,2.288853284504512
1499369090534,-1.983672846570471,3.692683299000464,1.983672846570471
1499369090550,-1.8616006713969,1.739528496223329,2.166781109330941
1499369090566,-1.739528496223329,2.166781109330941,1.9226367589837992
1499369090582,-1.1902037079423735,2.166781109330941,1.3733119707026162
1499369090598,-0.213626306553806,2.3498893720911838,1.0070954451819034
1499369090614,0.45777065690094787,2.532997634851654,1.3122758831159445
1499369090630,-0.03051804379333589,3.4485389486533222,2.410925459678083
1499369090646,-1.6174563210497581,3.936827649347606,3.2043945983061803
1499369090662,-2.5940337224383256,4.42511635004189,2.8381780727854675
1499369090678,-2.288853284504512,3.997863736934505,2.3498893720911838
1499369090694,-1.6174563210497581,3.570611123826893,1.983672846570471
1499369090710,-1.0681315327688026,3.2654306858930795,1.9226367589837992
1499369090726,-0.8239871824216607,3.6316472114137923,2.288853284504512
1499369090742,-0.213626306553806,5.0354772259097444,2.04470893415737
1499369090758,0.7019150072480898,4.852368963149502,1.5564202334630863
1499369090774,0.6408789196611906,3.4485389486533222,1.1902037079423735
1499369090790,-0.213626306553806,2.655069810025225,1.1291676203554744
1499369090806,-0.7019150072480898,3.0212863355459376,1.0070954451819034
1499369090822,-0.03051804379333589,3.0212863355459376,0.8239871824216607
1499369090838,1.5564202334630863,2.3498893720911838,0.03051804379333589
1499369090854,1.8005645838102282,1.0681315327688026,-0.2746623941404778
1499369090870,0.09155413138023505,1.0070954451819034,0.15259021896690683
1499369090886,-0.9460593575952316,1.8616006713969,0.45777065690094787
1499369090902,-0.45777065690094787,2.04470893415737,-0.15259021896690683
1499369090918,0.213626306553806,1.6174563210497581,-0.7629510948347615
1499369090934,0.9460593575952316,2.04470893415737,-0.6408789196611906
1499369090950,1.0070954451819034,1.983672846570471,-0.3967345693140487
1499369090966,0.8850232700083325,0.5188067444876197,0.03051804379333589
1499369090982,0.3967345693140487,0.8239871824216607,0.15259021896690683
1499369090998,-0.09155413138023505,1.9226367589837992,-0.213626306553806
1499369091014,-0.03051804379333589,1.6174563210497581,-0.7019150072480898
1499369091030,0.5188067444876197,1.5564202334630863,-0.8850232700083325
1499369091046,1.3733119707026162,1.983672846570471,-0.5188067444876197
1499369091063,1.2512397955290453,1.739528496223329,-0.2746623941404778
1499369091079,0.6408789196611906,1.0070954451819034,-0.33569848172737693
1499369091095,0.45777065690094787,1.1902037079423735,-0.33569848172737693
1499369091111,0.2746623941404778,1.983672846570471,0.09155413138023505
1499369091127,0.6408789196611906,2.227817196917613,0.2746623941404778
1499369091143,0.7019150072480898,1.8005645838102282,0.33569848172737693
1499369091159,0.6408789196611906,1.739528496223329,0.33569848172737693
1499369091175,1.2512397955290453,1.3733119707026162,0.45777065690094787
1499369091191,0.9460593575952316,1.739528496223329,0.45777065690094787
1499369091207,0.5798428320745188,2.3498893720911838,0.15259021896690683
1499369091223,0.6408789196611906,2.8992141603723667,-0.15259021896690683
1499369091239,1.3733119707026162,2.655069810025225,-0.45777065690094787
1499369091255,2.166781109330941,2.04470893415737,-0.8850232700083325
1499369091271,1.983672846570471,1.6174563210497581,-0.8239871824216607
1499369091287,1.6174563210497581,1.8005645838102282,-0.7019150072480898
1499369091303,1.4953841458761872,1.739528496223329,-0.45777065690094787
1499369091319,1.3733119707026162,1.1902037079423735,0.2746623941404778
1499369091335,1.1902037079423735,2.105745021744042,1.1291676203554744
1499369091351,1.1291676203554744,2.8992141603723667,1.2512397955290453
1499369091367,1.3733119707026162,2.410925459678083,0.5188067444876197
1499369091383,1.8005645838102282,1.9226367589837992,-0.2746623941404778
1499369091399,1.739528496223329,1.8005645838102282,-0.33569848172737693
1499369091415,1.5564202334630863,1.8005645838102282,-0.09155413138023505
1499369091431,1.4343480582895154,2.7771419851987957,0.09155413138023505
1499369091447,1.8616006713969,2.4719615472647547,-0.09155413138023505
1499369091463,1.983672846570471,1.8616006713969,-0.09155413138023505
1499369091479,1.9226367589837992,2.166781109330941,0.2746623941404778
1499369091495,1.8005645838102282,2.4719615472647547,-0.15259021896690683
1499369091511,1.4953841458761872,2.288853284504512,-0.7019150072480898
1499369091527,1.6784924086366573,2.04470893415737,-0.3967345693140487
1499369091543,1.8616006713969,1.8005645838102282,0.15259021896690683
1499369091559,1.1291676203554744,1.4953841458761872,0.8239871824216607
1499369091575,0.33569848172737693,2.166781109330941,1.0070954451819034
1499369091591,0.15259021896690683,3.2043945983061803,0.8239871824216607
1499369091607,0.8239871824216607,3.1433585107195086,0.45777065690094787
1499369091623,1.983672846570471,3.0823224231326094,-0.15259021896690683
1499369091639,3.5095750362402214,3.2043945983061803,-0.5188067444876197
1499369091655,3.997863736934505,4.547188525215461,-0.6408789196611906
1499369091671,3.1433585107195086,6.378271152819025,-0.213626306553806
1499369091687,0.8239871824216607,10.589761196307336,-0.2746623941404778
1499369091703,0.15259021896690683,9.491111619745197,0.7629510948347615
1499369091719,0.5188067444876197,10.101472495613052,-0.7629510948347615
1499369091735,1.0681315327688026,9.55214770733187,-0.6408789196611906
1499369091751,2.3498893720911838,6.134126802471883,-1.9226367589837992
1499369091767,3.570611123826893,2.8381780727854675,-2.166781109330941
1499369091783,3.5095750362402214,1.3122758831159445,-0.9460593575952316
1499369091799,2.288853284504512,1.1902037079423735,0.09155413138023505
1499369091815,0.5798428320745188,2.227817196917613,0.213626306553806
1499369091831,0.03051804379333589,2.655069810025225,-0.03051804379333589
1499369091847,0.5798428320745188,2.227817196917613,-0.2746623941404778
1499369091863,1.5564202334630863,1.2512397955290453,-0.15259021896690683
1499369091879,1.1291676203554744,0.8239871824216607,0.8850232700083325
1499369091895,0.33569848172737693,1.5564202334630863,1.4343480582895154
1499369091911,0.33569848172737693,1.6784924086366573,0.8850232700083325
1499369091927,0.45777065690094787,1.5564202334630863,0.5188067444876197
1499369091943,0.2746623941404778,2.410925459678083,0.213626306553806
1499369091959,0.6408789196611906,2.4719615472647547,-0.15259021896690683
1499369091975,1.1291676203554744,2.227817196917613,0.09155413138023505
1499369091991,1.6784924086366573,1.9226367589837992,0.5798428320745188
1499369092007,2.166781109330941,1.8005645838102282,0.5798428320745188
1499369092023,1.8005645838102282,1.983672846570471,0.15259021896690683
1499369092039,1.6174563210497581,1.739528496223329,-0.5798428320745188
1499369092055,1.9226367589837992,0.8239871824216607,-0.9460593575952316
1499369092071,1.9226367589837992,0.8239871824216607,-0.8239871824216607
1499369092087,1.4343480582895154,1.6174563210497581,-0.45777065690094787
1499369092103,1.0070954451819034,2.166781109330941,-0.3967345693140487
1499369092119,1.1902037079423735,1.739528496223329,-0.45777065690094787
1499369092135,1.3733119707026162,1.4953841458761872,-0.33569848172737693
1499369092151,1.4343480582895154,2.04470893415737,-0.213626306553806
1499369092167,1.8005645838102282,2.105745021744042,-0.213626306553806
1499369092183,1.4343480582895154,2.105745021744042,-0.3967345693140487
1499369092199,1.0681315327688026,1.1902037079423735,-0.33569848172737693
1499369092215,1.1291676203554744,1.3733119707026162,-0.09155413138023505
1499369092231,1.8005645838102282,1.6784924086366573,0.15259021896690683
1499369092247,1.9226367589837992,1.8616006713969,0.33569848172737693
1499369092263,1.4953841458761872,1.6784924086366573,0.15259021896690683
1499369092279,1.1902037079423735,1.4953841458761872,-0.33569848172737693
1499369092295,1.0681315327688026,1.6174563210497581,-0.5798428320745188
1499369092311,1.1902037079423735,1.6784924086366573,-0.5798428320745188
1499369092327,1.2512397955290453,1.4343480582895154,-0.5188067444876197
1499369092343,1.4343480582895154,1.3122758831159445,-0.33569848172737693
1499369092359,1.5564202334630863,1.6174563210497581,-0.03051804379333589
1499369092375,1.4343480582895154,1.9226367589837992,-0.213626306553806
1499369092391,1.1291676203554744,1.5564202334630863,-0.2746623941404778
1499369092407,1.2512397955290453,1.739528496223329,-0.3967345693140487
1499369092423,1.8005645838102282,1.4953841458761872,-0.6408789196611906
1499369092439,1.6784924086366573,1.4343480582895154,-0.15259021896690683
1499369092456,0.5798428320745188,2.5940337224383256,0.5798428320745188
1499369092472,0.09155413138023505,2.8992141603723667,0.5188067444876197
1499369092488,0.213626306553806,2.4719615472647547,0.45777065690094787
1499369092504,-0.33569848172737693,4.669260700389032,1.983672846570471
1499369092520,-0.3967345693140487,5.76791027695117,2.7771419851987957
1499369092536,-0.5798428320745188,6.073090714885211,2.8992141603723667
1499369092552,0.03051804379333589,6.073090714885211,2.7161058976118966
1499369092568,0.6408789196611906,4.791332875562603,1.739528496223329
1499369092584,1.1291676203554744,3.3875028610666504,0.6408789196611906
1499369092600,1.3122758831159445,2.655069810025225,-0.3967345693140487
1499369092616,1.8005645838102282,1.4953841458761872,-1.3733119707026162
1499369092632,1.8005645838102282,0.6408789196611906,-1.4953841458761872
1499369092648,1.4953841458761872,0.8850232700083325,-1.0070954451819034
1499369092664,1.4343480582895154,1.4953841458761872,-0.6408789196611906
1499369092680,1.4953841458761872,1.8005645838102282,-0.6408789196611906
1499369092696,1.4953841458761872,1.9226367589837992,-0.7019150072480898
1499369092712,1.6784924086366573,1.4953841458761872,-0.9460593575952316
1499369092728,2.105745021744042,1.1291676203554744,-1.5564202334630863
1499369092744,2.166781109330941,1.1902037079423735,-1.8005645838102282
1499369092760,1.8616006713969,1.1902037079423735,-1.6174563210497581
1499369092776,1.983672846570471,0.9460593575952316,-1.3122758831159445
1499369092792,1.8616006713969,0.7629510948347615,-1.1902037079423735
1499369092808,1.6174563210497581,1.0681315327688026,-1.0070954451819034
1499369092824,1.739528496223329,1.0681315327688026,-1.1291676203554744
1499369092840,1.8616006713969,0.9460593575952316,-1.1902037079423735
1499369092856,1.6174563210497581,1.3122758831159445,-1.3122758831159445
1499369092872,1.3733119707026162,1.4953841458761872,-1.739528496223329
1499369092888,0.7019150072480898,1.2512397955290453,-2.3498893720911838
1499369092904,-0.7019150072480898,1.0681315327688026,-3.1433585107195086
1499369092920,-1.4953841458761872,1.5564202334630863,-4.180971999694748
1499369092936,-0.45777065690094787,2.3498893720911838,-5.889982452124741
1499369092952,2.04470893415737,1.1902037079423735,-6.805523765926637
1499369092968,3.0823224231326094,0.45777065690094787,-5.401693751430457
1499369092984,0.8850232700083325,4.303044174868319,-2.655069810025225
1499369093000,-0.8239871824216607,5.889982452124741,-1.5564202334630863
1499369093016,-0.7019150072480898,4.486152437628789,-2.4719615472647547
1499369093032,0.15259021896690683,2.655069810025225,-3.1433585107195086
1499369093048,0.7629510948347615,2.532997634851654,-2.9602502479590385
1499369093064,1.1291676203554744,2.532997634851654,-2.288853284504512
1499369093080,1.0681315327688026,2.166781109330941,-1.739528496223329
1499369093096,0.8850232700083325,1.739528496223329,-1.4953841458761872
1499369093112,1.3733119707026162,1.4953841458761872,-1.2512397955290453
1499369093128,1.983672846570471,2.04470893415737,-0.8239871824216607
1499369093144,1.983672846570471,2.410925459678083,-0.33569848172737693
1499369093160,1.739528496223329,2.105745021744042,-0.33569848172737693
1499369093176,1.4953841458761872,1.9226367589837992,-0.5188067444876197
1499369093192,1.3733119707026162,1.4953841458761872,-0.8239871824216607
1499369093208,1.6174563210497581,1.0681315327688026,-0.5798428320745188
1499369093224,1.9226367589837992,1.6174563210497581,-0.7019150072480898
1499369093240,1.8005645838102282,1.9226367589837992,-1.0070954451819034
1499369093256,1.4343480582895154,1.6174563210497581,-0.8850232700083325
1499369093272,1.1902037079423735,1.6174563210497581,-0.8850232700083325
1499369093288,0.8850232700083325,2.105745021744042,-1.0681315327688026
1499369093304,1.0070954451819034,1.9226367589837992,-1.983672846570471
1499369093320,1.0070954451819034,1.3733119707026162,-3.0823224231326094
1499369093336,1.0681315327688026,2.227817196917613,-3.6316472114137923
1499369093352,1.4953841458761872,2.8992141603723667,-4.242008087281647
1499369093368,1.8616006713969,2.655069810025225,-4.547188525215461
1499369093384,2.105745021744042,2.227817196917613,-4.303044174868319
1499369093400,1.8005645838102282,2.9602502479590385,-3.6316472114137923
1499369093416,1.5564202334630863,3.3875028610666504,-3.1433585107195086
1499369093432,1.0681315327688026,3.2043945983061803,-2.655069810025225
1499369093448,0.15259021896690683,3.2043945983061803,-2.7771419851987957
1499369093464,-1.0681315327688026,3.7537193865873633,-3.0212863355459376
1499369093480,-1.8616006713969,3.4485389486533222,-3.5095750362402214
1499369093496,-1.6784924086366573,2.7161058976118966,-3.7537193865873633
1499369093512,-0.6408789196611906,3.3875028610666504,-3.570611123826893
1499369093528,0.9460593575952316,3.0212863355459376,-3.875791561760934
1499369093544,2.04470893415737,1.983672846570471,-3.875791561760934
1499369093560,2.105745021744042,2.04470893415737,-3.0212863355459376
1499369093576,1.1902037079423735,2.288853284504512,-1.6784924086366573
1499369093592,0.9460593575952316,2.3498893720911838,-1.1902037079423735
1499369093608,2.04470893415737,1.5564202334630863,-1.3122758831159445
1499369093624,2.9602502479590385,1.2512397955290453,-1.1291676203554744
1499369093640,2.8992141603723667,0.9460593575952316,-0.7019150072480898
1499369093656,3.4485389486533222,0.03051804379333589,-0.2746623941404778
1499369093672,5.096513313496644,-4.119935912108076,-0.3967345693140487
1499369093688,6.744487678339738,-7.660028992141633,-1.0681315327688026
1499369093704,8.6366063935302,-8.270389868009488,-2.3498893720911838
1499369093720,10.162508583199724,-5.706874189364498,-4.852368963149502
1499369093736,12.787060349431613,-6.256198977645454,-7.965209430075447
1499369093752,16.26611734187827,-10.162508583199724,-11.505302510109004
1499369093768,16.998550392919697,-13.153276874952326,-11.139085984588291
1499369093784,16.632333867398984,-15.655756466010416,-9.73525597009234
1499369093800,13.031204699778755,-12.603952086671143,-7.721065079728305
1499369093816,7.721065079728305,-6.012054627298312,-4.852368963149502
1499369093832,3.875791561760934,-0.03051804379333589,-3.3264667734797513
1499369093848,2.04470893415737,3.692683299000464,-2.8381780727854675
1499369093864,2.3498893720911838,5.279621576256886,-3.0212863355459376
1499369093880,2.7161058976118966,5.401693751430457,-2.7771419851987957
1499369093896,1.0070954451819034,6.683451590753066,-1.6174563210497581
1499369093912,-0.8239871824216607,9.308003356984727,-0.45777065690094787
1499369093928,-1.3733119707026162,10.406652933546866,-0.213626306553806
1499369093945,0.15259021896690683,8.33142595559616,-0.3967345693140487
1499369093961,2.04470893415737,5.584802014190927,-1.0681315327688026
1499369093977,3.2654306858930795,4.119935912108076,-1.983672846570471
1499369093993,3.1433585107195086,4.669260700389032,-2.105745021744042
1499369094009,2.532997634851654,5.828946364538069,-2.410925459678083
1499369094025,1.8005645838102282,5.76791027695117,-2.7161058976118966
1499369094041,1.6174563210497581,4.974441138323073,-2.655069810025225
1499369094057,2.4719615472647547,3.814755474174035,-2.227817196917613
1499369094073,4.974441138323073,-0.2746623941404778,-2.3498893720911838
1499369094089,7.11070420386045,-3.0212863355459376,-2.7161058976118966
1499369094105,7.354848554207592,-2.655069810025225,-2.8992141603723667
1499369094121,6.9886320286868795,-1.9226367589837992,-3.3264667734797513
1499369094137,7.660028992141633,-3.5095750362402214,-2.8381780727854675
1499369094153,5.889982452124741,-7.476920729381163,-1.9226367589837992
1499369094169,3.936827649347606,-7.049668116273779,-1.4343480582895154
1499369094185,2.655069810025225,-2.04470893415737,-1.1902037079423735
1499369094201,2.288853284504512,0.5188067444876197,-1.983672846570471
1499369094217,3.0823224231326094,1.5564202334630863,-2.8992141603723667
1499369094233,3.2654306858930795,4.058899824521177,-2.9602502479590385
1499369094249,2.288853284504512,6.256198977645454,-2.227817196917613
1499369094265,1.739528496223329,5.706874189364498,-1.8616006713969
1499369094281,2.04470893415737,0.9460593575952316,-1.3122758831159445
1499369094297,2.105745021744042,-3.6316472114137923,-0.2746623941404778
1499369094313,0.9460593575952316,-2.7771419851987957,0.2746623941404778
1499369094329,0.8239871824216607,-0.33569848172737693,-0.45777065690094787
1499369094345,1.2512397955290453,1.8616006713969,-1.6784924086366573
1499369094361,1.5564202334630863,2.7771419851987957,-2.410925459678083
1499369094377,0.3967345693140487,5.401693751430457,-2.105745021744042
1499369094393,-0.5798428320745188,8.392462043183059,-1.6784924086366573
1499369094409,-0.3967345693140487,8.392462043183059,-1.1291676203554744
1499369094425,0.5188067444876197,6.012054627298312,-0.6408789196611906
1499369094441,0.8239871824216607,4.242008087281647,-0.213626306553806
1499369094457,1.0070954451819034,3.5095750362402214,0.03051804379333589
1499369094473,1.1902037079423735,3.2043945983061803,0.03051804379333589
1499369094489,1.5564202334630863,2.105745021744042,-0.45777065690094787
1499369094505,1.5564202334630863,0.8850232700083325,-0.7629510948347615
1499369094521,1.1902037079423735,0.7019150072480898,-0.45777065690094787
1499369094537,1.0681315327688026,1.3733119707026162,-0.33569848172737693
1499369094553,1.4343480582895154,0.8239871824216607,-0.6408789196611906
1499369094569,2.4719615472647547,0.8239871824216607,-0.8850232700083325
1499369094585,3.5095750362402214,1.8005645838102282,-1.1902037079423735
1499369094601,3.5095750362402214,1.8005645838102282,-1.8005645838102282
1499369094617,2.7771419851987957,1.8005645838102282,-1.9226367589837992
1499369094633,1.2512397955290453,2.8992141603723667,-1.1291676203554744
1499369094649,0.5798428320745188,3.875791561760934,-0.5798428320745188
1499369094665,1.4343480582895154,2.7771419851987957,-0.3967345693140487
1499369094681,2.5940337224383256,1.5564202334630863,-0.45777065690094787
1499369094697,2.3498893720911838,1.983672846570471,-0.7019150072480898
1499369094713,1.1902037079423735,2.04470893415737,-0.5188067444876197
1499369094729,0.7019150072480898,2.288853284504512,-0.3967345693140487
1499369094745,1.0070954451819034,2.532997634851654,-0.7629510948347615
1499369094761,1.739528496223329,2.04470893415737,-1.3733119707026162
1499369094777,2.7161058976118966,1.0070954451819034,-1.4343480582895154
1499369094793,2.7771419851987957,0.5798428320745188,-0.8850232700083325
1499369094809,1.3122758831159445,0.8850232700083325,0.03051804379333589
1499369094825,0.3967345693140487,0.5798428320745188,1.1291676203554744
1499369094841,0.7019150072480898,1.3733119707026162,1.739528496223329
1499369094857,0.3967345693140487,3.692683299000464,-0.03051804379333589
1499369094873,0.45777065690094787,0.15259021896690683,-1.6784924086366573
1499369094889,0.5188067444876197,-0.7019150072480898,-1.6174563210497581
1499369094905,0.45777065690094787,0.03051804379333589,-0.3967345693140487
1499369094921,1.3733119707026162,-0.5798428320745188,0.213626306553806
1499369094937,4.119935912108076,-1.3122758831159445,1.2512397955290453
1499369094953,7.537956816968062,5.0354772259097444,3.875791561760934
1499369094969,10.284580758373295,11.444266422522333,6.683451590753066
1499369094985,6.195162890058782,11.505302510109004,9.246967269398056
1499369095001,1.1902037079423735,5.462729839017356,9.369039444571627
1499369095017,-0.7019150072480898,1.8005645838102282,10.223544670786623
1499369095033,-0.7629510948347615,2.4719615472647547,10.284580758373295
1499369095049,-0.5188067444876197,3.814755474174035,8.819714656290444
1499369095065,0.15259021896690683,4.119935912108076,7.476920729381163
1499369095081,0.8850232700083325,5.462729839017356,5.828946364538069
1499369095097,-1.8616006713969,7.843137254901876,4.669260700389032
1499369095113,-3.814755474174035,6.378271152819025,3.6316472114137923
1499369095129,-5.706874189364498,8.026245517662346,1.2512397955290453
1499369095145,-6.195162890058782,9.124895094224485,-1.4343480582895154
1499369095161,-3.6316472114137923,7.17174029144735,-4.303044174868319
1499369095177,-0.7629510948347615,6.622415503166167,-6.134126802471883
1499369095193,0.45777065690094787,7.537956816968062,-7.2938124666209205
1499369095209,0.7019150072480898,6.134126802471883,-9.308003356984727
1499369095225,0.213626306553806,4.791332875562603,-11.444266422522333
1499369095241,-0.15259021896690683,6.378271152819025,-11.871519035629717
1499369095257,0.45777065690094787,9.246967269398056,-11.139085984588291
1499369095273,1.0070954451819034,10.467689021133765,-9.308003356984727
1499369095289,1.983672846570471,7.049668116273779,-6.8665598535133086
1499369095305,3.997863736934505,1.5564202334630863,-5.0354772259097444
1499369095322,4.119935912108076,-1.739528496223329,-3.4485389486533222
1499369095338,3.7537193865873633,-2.8381780727854675,-1.739528496223329
1499369095354,3.3264667734797513,-2.7161058976118966,-0.8850232700083325
1499369095370,3.875791561760934,-2.532997634851654,-0.03051804379333589
1499369095386,5.3406576638437855,-2.227817196917613,1.3733119707026162
1499369095402,6.378271152819025,-1.9226367589837992,1.8005645838102282
1499369095418,6.073090714885211,-2.4719615472647547,1.739528496223329
1499369095434,4.669260700389032,-3.3264667734797513,2.166781109330941
1499369095450,3.692683299000464,-3.1433585107195086,2.7771419851987957
1499369095466,2.5940337224383256,-1.1291676203554744,3.2654306858930795
1499369095482,1.4343480582895154,0.8850232700083325,2.7771419851987957
1499369095498,0.8850232700083325,1.3733119707026162,1.6784924086366573
1499369095514,1.1902037079423735,0.33569848172737693,0.6408789196611906
1499369095530,1.1902037079423735,-0.33569848172737693,0.8239871824216607
1499369095546,0.8239871824216607,0.8239871824216607,1.4343480582895154
1499369095562,0.7019150072480898,1.8616006713969,1.739528496223329
1499369095578,0.9460593575952316,1.4953841458761872,1.739528496223329
1499369095594,1.8616006713969,1.0070954451819034,1.5564202334630863
1499369095610,2.04470893415737,1.4953841458761872,1.1902037079423735
1499369095626,1.2512397955290453,2.105745021744042,0.7019150072480898
1499369095642,-0.213626306553806,4.547188525215461,0.7629510948347615
1499369095658,-2.5940337224383256,4.119935912108076,0.7019150072480898
1499369095674,-3.7537193865873633,-5.584802014190927,-0.5798428320745188
1499369095690,-5.706874189364498,-13.885709925993751,-3.7537193865873633
1499369095706,-7.537956816968062,-12.603952086671143,-7.476920729381163
1499369095722,-10.223544670786623,1.4343480582895154,-9.063859006637585
1499369095738,-11.01701380941472,11.810482948043045,-7.782101167315204
1499369095754,-11.932555123216616,12.603952086671143,-6.9886320286868795
1499369095770,-13.336385137712568,11.07804989700162,-5.76791027695117
1499369095786,-15.899900816357558,9.185931181811156,-5.0354772259097444
1499369095802,-16.510261692225413,3.692683299000464,-6.256198977645454
1499369095818,-15.167467765316132,1.6784924086366573,-7.354848554207592
1499369095834,-13.275349050125897,3.5095750362402214,-6.195162890058782
1499369095850,-11.688410772869474,4.42511635004189,-4.303044174868319
1499369095866,-9.918364232852582,4.852368963149502,-3.2043945983061803
1499369095882,-7.11070420386045,5.279621576256886,-1.9226367589837992
1499369095898,-5.828946364538069,1.983672846570471,0.8239871824216607
1499369095914,-5.76791027695117,-7.232776379034021,2.410925459678083
1499369095930,-4.303044174868319,-13.64156557564661,1.4953841458761872
1499369095946,-2.105745021744042,-12.787060349431613,0.6408789196611906
1499369095962,0.7629510948347615,-7.17174029144735,0.45777065690094787
1499369095978,3.997863736934505,-0.6408789196611906,1.2512397955290453
1499369095994,4.852368963149502,0.03051804379333589,3.3264667734797513
1499369096010,4.119935912108076,-6.317235065232353,4.60822461280236
1499369096026,2.410925459678083,-13.397421225299468,4.42511635004189
1499369096042,-0.9460593575952316,-15.167467765316132,4.669260700389032
1499369096058,-2.4719615472647547,-12.359807736324,4.60822461280236
1499369096074,-1.739528496223329,-8.697642481116873,3.570611123826893
1499369096090,-0.6408789196611906,-3.692683299000464,1.983672846570471
1499369096106,1.3122758831159445,-0.03051804379333589,1.5564202334630863
1499369096122,1.0681315327688026,-2.166781109330941,1.6174563210497581
1499369096138,0.7629510948347615,-2.410925459678083,0.09155413138023505
1499369096154,1.3733119707026162,1.1291676203554744,-0.6408789196611906
1499369096170,2.105745021744042,4.669260700389032,-0.33569848172737693
1499369096186,2.7161058976118966,6.8665598535133086,0.15259021896690683
1499369096202,3.0212863355459376,10.711833371480907,-0.03051804379333589
1499369096218,2.410925459678083,14.679179064621849,-0.09155413138023505
1499369096234,2.288853284504512,18.036163881895163,-0.03051804379333589
1499369096250,2.8992141603723667,21.39314869916825,0.03051804379333589
1499369096266,4.119935912108076,23.95666437781324,0.3967345693140487
1499369096282,5.76791027695117,20.294499122606112,2.3498893720911838
1499369096298,6.805523765926637,8.575570305943302,5.828946364538069
1499369096314,7.476920729381163,1.983672846570471,7.782101167315204
1499369096330,7.354848554207592,3.875791561760934,7.782101167315204
1499369096346,5.584802014190927,7.2938124666209205,7.721065079728305
1499369096362,3.3875028610666504,6.439307240405924,5.828946364538069
1499369096378,2.7771419851987957,-0.5798428320745188,2.9602502479590385
1499369096394,0.6408789196611906,-5.889982452124741,1.0681315327688026
1499369096410,-0.6408789196611906,-3.1433585107195086,0.7019150072480898
1499369096426,-0.8850232700083325,1.739528496223329,1.2512397955290453
1499369096442,-0.3967345693140487,2.655069810025225,1.5564202334630863
1499369096458,0.213626306553806,3.997863736934505,0.33569848172737693
1499369096474,0.5798428320745188,5.157549401083315,-1.1902037079423735
1499369096490,0.9460593575952316,0.7019150072480898,-1.4953841458761872
1499369096506,1.1291676203554744,-5.2185854886702145,-1.3122758831159445
1499369096522,2.04470893415737,-4.730296787975931,-0.9460593575952316
1499369096538,2.7161058976118966,0.33569848172737693,-0.45777065690094787
1499369096554,2.8381780727854675,3.5095750362402214,-0.213626306553806
1499369096570,1.6174563210497581,2.3498893720911838,-0.213626306553806
1499369096586,0.9460593575952316,-0.8239871824216607,-0.7019150072480898
1499369096602,0.6408789196611906,-2.4719615472647547,-1.3122758831159445
1499369096618,0.7019150072480898,-1.4953841458761872,-1.9226367589837992
1499369096634,1.6174563210497581,0.9460593575952316,-2.105745021744042
1499369096650,1.4343480582895154,2.3498893720911838,-1.4953841458761872
1499369096666,0.5798428320745188,2.227817196917613,-0.8850232700083325
1499369096682,0.03051804379333589,2.9602502479590385,-1.2512397955290453
1499369096698,-0.33569848172737693,4.791332875562603,-2.04470893415737
1499369096714,-0.7019150072480898,8.148317692835917,-4.730296787975931
1499369096730,-2.532997634851654,22.308690012970146,-9.002822919050914
1499369096746,0.8239871824216607,25.05531395437538,-4.9134050507361735
1499369096762,3.570611123826893,7.904173342488775,-5.3406576638437855
1499369096778,5.95101853971164,-0.5798428320745188,-1.6174563210497581
1499369096795,4.364080262455218,-2.166781109330941,4.852368963149502
1499369096811,3.0212863355459376,-1.1902037079423735,8.941786831464015
1499369096827,1.1902037079423735,-1.983672846570471,8.392462043183059
1499369096843,2.4719615472647547,-3.570611123826893,6.500343327992596
1499369096859,5.706874189364498,-7.2938124666209205,3.875791561760934
1499369096875,7.721065079728305,-12.298771648737329,2.9602502479590385
1499369096891,10.711833371480907,-16.02197299153113,5.76791027695117
1499369096907,13.275349050125897,-17.120622568093268,7.598992904554734
1499369096923,18.70756084534969,-17.181658655680167,8.148317692835917
1499369096939,35.67559319447605,-15.167467765316132,6.500343327992596
1499369096955,52.15533684290813,-14.862287327382319,1.2512397955290453
1499369096971,69.8558022430766,-18.158236057068734,4.42511635004189
1499369096987,82.55130846112797,-18.036163881895163,5.584802014190927
1499369097003,88.65491721980652,-11.383230334935433,4.974441138323073
1499369097019,104.2801556420236,-12.176699473563758,1.8616006713969
1499369097035,129.61013199053923,-27.374685282673227,0.7019150072480898
1499369097051,149.38582436865772,-57.404440375371905,7.537956816968062
1499369097067,151.40001525902198,-85.35896849011965,12.359807736324
1499369097083,137.4837872892349,-91.40154116121153,13.336385137712568
1499369097099,117.83016708628975,-85.54207675288012,-0.45777065690094787
1499369097115,91.46257724879842,-104.40222781719694,-11.444266422522333
1499369097131,59.723811703669526,-116.12115663385975,-17.79201953154802
1499369097147,29.938200961318216,-104.34119172961027,-28.595407034408936
1499369097163,11.627374685282575,-92.80537117570748,-21.026932173647538
1499369097179,7.537956816968062,-103.3646143282217,-19.562066071564686
1499369097195,-3.6316472114137923,-95.3688868543527,-15.899900816357558
1499369097211,-14.312962539101136,-72.29724574654756,-1.4343480582895154
1499369097227,-24.994277866788707,-44.15960936903957,-2.410925459678083
1499369097243,-33.844510566872714,-52.94880598153668,-6.561379415579495
1499369097259,-30.4875257495994,-86.0303654535744,13.885709925993751
1499369097275,-17.914091706721592,-82.30716411078038,18.097199969481835
1499369097291,-8.087281605249018,-50.26321812771812,3.5095750362402214
1499369097307,-9.918364232852582,-11.07804989700162,-8.33142595559616
1499369097323,-18.89066910811016,17.181658655680167,-4.058899824521177
1499369097339,-30.182345311665358,35.91973754482319,-0.09155413138023505
1499369097355,-40.497444113832444,50.446326390478134,1.0681315327688026
1499369097371,-42.69474326695672,54.535744258792874,5.645838101777599
1499369097387,-37.994964522774126,54.596780346379546,9.491111619745197
1499369097403,-36.4080262455177,56.48889906157001,11.932555123216616
1499369097419,-41.0467689021134,63.935301747158064,10.223544670786623
1499369097435,-50.995651178759545,78.21774624246609,4.242008087281647
1499369097451,-63.63012130922402,98.54276340886554,-2.288853284504512
1499369097467,-69.06233310444804,111.54345006485073,-6.439307240405924
1499369097483,-62.8976882581826,100.61799038681647,-4.730296787975931
1499369097499,-52.70466163118954,70.6492713817047,-1.5564202334630863
1499369097515,-46.17380025940338,40.070191500724604,-1.983672846570471
1499369097531,-43.9765011062791,20.294499122606112,-6.683451590753066
1499369097547,-45.31929503318838,10.101472495613052,-12.787060349431613
1499369097563,-49.897001602197406,9.369039444571627,-17.79201953154802
1499369097579,-56.30579079880977,14.129854276340893,-20.35553521019301
1499369097595,-59.29655909056237,20.11139085984587,-20.294499122606112
1499369097611,-58.07583733882666,21.820401312275862,-18.524452582589447
1499369097627,-54.596780346379774,19.439993896391115,-17.303730830853738
1499369097643,-52.216372930495254,15.167467765316132,-17.60891126878755
1499369097659,-51.66704814221407,10.528725108720437,-16.693369954985883
1499369097675,-51.117723353933116,8.758678568703772,-13.702601663233281
1499369097691,-48.6762798504617,7.904173342488775,-11.139085984588291
1499369097707,-46.906233310444804,5.828946364538069,-9.918364232852582
1499369097723,-47.333485923552416,4.669260700389032,-9.796292057679011
1499369097739,-49.53078507667669,4.547188525215461,-9.369039444571627
1499369097755,-50.44632639047836,5.157549401083315,-8.026245517662346
1499369097771,-48.371099412527656,6.317235065232353,-5.889982452124741
1499369097787,-45.44136720836195,9.185931181811156,-3.5095750362402214
1499369097803,-42.87785152971696,10.711833371480907,-0.5798428320745188
1499369097819,-39.337758449683406,9.55214770733187,3.1433585107195086
1499369097835,-35.79766536964985,7.354848554207592,6.805523765926637
1499369097851,-32.13550011444272,7.4158846417944915,10.528725108720437
1499369097867,-28.534370946822264,5.096513313496644,12.542915999084471
1499369097883,-26.39810788128466,3.0212863355459376,12.542915999084471
1499369097899,-24.872205691615136,3.5095750362402214,12.115663385976859
1499369097915,-24.07873655298681,4.058899824521177,11.20012207217519
1499369097931,-24.750133516441565,3.4485389486533222,8.209353780422589
1499369097947,-26.153963530937517,4.180971999694748,3.7537193865873633
1499369097963,-26.337071793697987,9.918364232852582,2.3498893720911838
1499369097979,-25.05531395437538,14.92332341496899,3.997863736934505
1499369097995,-22.186617837796575,11.01701380941472,4.730296787975931
1499369098011,-20.538643472953254,2.166781109330941,3.1433585107195086
1499369098027,-19.378957808804444,-1.9226367589837992,0.33569848172737693
1499369098043,-16.876478217746126,4.669260700389032,0.8239871824216607
1499369098059,-17.853055619134693,18.95170519569683,3.570611123826893
1499369098075,-18.402380407415876,22.430762188143717,6.927595941100208
1499369098091,-19.501029983978015,14.862287327382319,5.828946364538069
1499369098108,-18.646524757763018,8.6366063935302,5.462729839017356
1499369098124,-14.557106889448278,1.8616006713969,7.537956816968062
1499369098140,-7.049668116273779,-0.8850232700083325,8.575570305943302
1499369098156,-1.3122758831159445,-7.782101167315204,7.049668116273779
1499369098172,3.570611123826893,-14.435034714274707,6.012054627298312
1499369098188,6.8665598535133086,-18.463416495002548,6.378271152819025
1499369098204,7.354848554207592,-18.463416495002548,7.17174029144735
1499369098220,4.974441138323073,-14.007782101167322,5.889982452124741
1499369098236,1.4343480582895154,-7.11070420386045,3.1433585107195086
1499369098252,-1.0070954451819034,-3.3875028610666504,1.0681315327688026
1499369098268,-1.0070954451819034,-4.974441138323073,0.45777065690094787
1499369098284,1.0681315327688026,-4.852368963149502,0.3967345693140487
1499369098300,3.2043945983061803,-2.105745021744042,0.5798428320745188
1499369098316,4.119935912108076,1.4343480582895154,0.8850232700083325
1499369098332,4.9134050507361735,4.60822461280236,0.8239871824216607
1499369098348,5.889982452124741,6.012054627298312,0.2746623941404778
1499369098364,7.354848554207592,5.76791027695117,1.0070954451819034
1499369098380,9.002822919050914,5.95101853971164,1.4343480582895154
1499369098396,10.040436408026153,5.706874189364498,1.6174563210497581
1499369098412,10.711833371480907,8.6366063935302,1.3733119707026162
1499369098428,11.627374685282575,12.359807736324,1.983672846570471
1499369098444,12.603952086671143,13.275349050125897,4.364080262455218
1499369098460,12.726024261844714,10.101472495613052,6.927595941100208
1499369098476,10.955977721828049,10.406652933546866,6.683451590753066
1499369098492,2.8381780727854675,38.60532539864175,7.721065079728305
1499369098508,-5.889982452124741,73.33485923552325,9.491111619745197
1499369098524,-5.462729839017356,65.58327611200139,11.871519035629717
1499369098540,-1.0070954451819034,44.58686198214673,13.092240787365427
1499369098556,4.242008087281647,28.04608224612798,10.406652933546866
1499369098572,12.054627298390187,10.650797283894008,4.730296787975931
1499369098588,12.787060349431613,3.997863736934505,1.1291676203554744
1499369098604,11.810482948043045,-2.4719615472647547,-0.09155413138023505
1499369098620,11.688410772869474,-7.537956816968062,0.6408789196611906
1499369098636,10.772869459067579,-8.697642481116873,2.7161058976118966
1499369098652,8.209353780422589,-1.3733119707026162,5.76791027695117
1499369098668,5.401693751430457,7.232776379034021,8.819714656290444
1499369098684,4.303044174868319,8.33142595559616,10.955977721828049
1499369098700,4.42511635004189,6.9886320286868795,10.528725108720437
1499369098716,4.180971999694748,4.303044174868319,9.918364232852582
1499369098732,5.2185854886702145,1.5564202334630863,10.406652933546866
1499369098748,6.805523765926637,3.0823224231326094,10.101472495613052
1499369098764,6.500343327992596,9.002822919050914,9.308003356984727
1499369098780,5.279621576256886,12.848096437018285,7.904173342488775
1499369098796,4.852368963149502,12.664988174258042,7.354848554207592
1499369098812,5.889982452124741,11.07804989700162,6.683451590753066
1499369098828,7.904173342488775,6.927595941100208,4.730296787975931
1499369098844,8.819714656290444,2.532997634851654,2.3498893720911838
1499369098860,9.55214770733187,1.2512397955290453,1.1291676203554744
1499369098876,10.040436408026153,4.242008087281647,2.7161058976118966
1499369098892,10.284580758373295,7.904173342488775,4.791332875562603
1499369098908,8.575570305943302,14.435034714274707,5.0354772259097444
1499369098924,6.500343327992596,24.200808728160382,4.180971999694748
1499369098940,6.378271152819025,20.660715648126825,3.1433585107195086
1499369098956,7.660028992141633,8.819714656290444,2.105745021744042
1499369098972,8.33142595559616,1.2512397955290453,1.739528496223329
1499369098988,7.721065079728305,0.15259021896690683,2.8381780727854675
1499369099004,6.378271152819025,3.2654306858930795,4.364080262455218
1499369099020,4.730296787975931,6.317235065232353,4.9134050507361735
1499369099036,2.227817196917613,8.087281605249018,4.852368963149502
1499369099052,-0.8850232700083325,10.101472495613052,4.974441138323073
1499369099068,-1.3122758831159445,8.51453421835663,4.058899824521177
1499369099084,0.33569848172737693,4.364080262455218,2.532997634851654
1499369099100,1.4953841458761872,1.1902037079423735,1.1291676203554744
1499369099116,1.8005645838102282,0.33569848172737693,0.6408789196611906
1499369099132,1.983672846570471,2.04470893415737,0.33569848172737693
1499369099148,1.8005645838102282,5.76791027695117,-0.3967345693140487
1499369099164,1.1902037079423735,10.223544670786623,-0.7629510948347615
1499369099180,0.8239871824216607,9.185931181811156,-0.8239871824216607
1499369099196,1.0681315327688026,6.073090714885211,-1.3122758831159445
1499369099212,1.8616006713969,1.739528496223329,-1.6174563210497581
1499369099228,2.655069810025225,-1.6174563210497581,-2.288853284504512
1499369099244,3.3875028610666504,-0.45777065690094787,-3.2043945983061803
1499369099260,3.3875028610666504,0.8239871824216607,-3.3264667734797513
1499369099276,2.8381780727854675,0.3967345693140487,-2.7771419851987957
1499369099292,1.8616006713969,1.3733119707026162,-1.4953841458761872
1499369099308,0.8850232700083325,2.410925459678083,0.5188067444876197
1499369099324,0.213626306553806,1.6174563210497581,2.288853284504512
1499369099340,-0.6408789196611906,0.45777065690094787,3.0823224231326094
1499369099356,-1.739528496223329,2.532997634851654,2.9602502479590385
1499369099372,-1.739528496223329,5.462729839017356,2.3498893720911838
1499369099388,-0.6408789196611906,3.570611123826893,1.4343480582895154
1499369099404,0.09155413138023505,2.3498893720911838,0.7019150072480898
1499369099420,-0.03051804379333589,3.0823224231326094,0.5798428320745188
1499369099436,-0.15259021896690683,2.7771419851987957,0.9460593575952316
1499369099452,-0.8239871824216607,3.2654306858930795,1.4953841458761872
1499369099468,-1.8005645838102282,4.058899824521177,1.8616006713969
1499369099484,-1.6174563210497581,4.974441138323073,1.983672846570471
1499369099500,-0.3967345693140487,7.598992904554734,1.8005645838102282
1499369099516,0.5188067444876197,6.8665598535133086,1.1291676203554744
1499369099532,0.7629510948347615,3.1433585107195086,-0.2746623941404778
1499369099548,0.8239871824216607,0.09155413138023505,-1.4343480582895154
1499369099564,0.9460593575952316,0.09155413138023505,-1.2512397955290453
1499369099581,1.6784924086366573,1.3733119707026162,-0.3967345693140487
1499369099597,1.4953841458761872,2.532997634851654,-0.15259021896690683
1499369099613,-0.03051804379333589,3.5095750362402214,0.6408789196611906
1499369099629,-1.1902037079423735,4.547188525215461,1.4953841458761872
1499369099645,-1.739528496223329,5.157549401083315,2.227817196917613
1499369099661,-1.2512397955290453,4.42511635004189,2.532997634851654
1499369099677,-0.7629510948347615,3.7537193865873633,1.6784924086366573
1499369099693,-0.15259021896690683,3.936827649347606,0.2746623941404778
1499369099709,0.09155413138023505,3.4485389486533222,-0.7629510948347615
1499369099725,0.213626306553806,0.9460593575952316,-1.0681315327688026
1499369099741,0.6408789196611906,-1.0070954451819034,-0.7019150072480898
1499369099757,1.0070954451819034,-1.8005645838102282,0.5188067444876197
1499369099773,1.0070954451819034,-2.288853284504512,1.4343480582895154
1499369099789,0.3967345693140487,-1.983672846570471,1.9226367589837992
1499369099805,0.09155413138023505,0.03051804379333589,1.4953841458761872
1499369099821,0.3967345693140487,1.0681315327688026,0.5798428320745188
1499369099837,0.6408789196611906,1.0070954451819034,-0.15259021896690683
1499369099853,0.5798428320745188,0.5188067444876197,-0.45777065690094787
1499369099869,0.2746623941404778,-0.7019150072480898,-1.4343480582895154
1499369099885,-0.03051804379333589,-1.3122758831159445,-2.04470893415737
1499369099901,-0.09155413138023505,0.03051804379333589,-1.3733119707026162
1499369099917,0.03051804379333589,1.2512397955290453,-1.1902037079423735
1499369099933,0.213626306553806,1.5564202334630863,-1.0681315327688026
1499369099949,0.5798428320745188,0.2746623941404778,-1.5564202334630863
1499369099965,1.4343480582895154,-1.3122758831159445,-1.983672846570471
1499369099981,3.1433585107195086,-2.288853284504512,-1.983672846570471
1499369099997,4.730296787975931,-2.7771419851987957,-1.8005645838102282
1499369100013,4.669260700389032,-3.2654306858930795,-1.739528496223329
1499369100029,3.2043945983061803,-2.8992141603723667,-2.288853284504512
1499369100045,1.739528496223329,-1.3122758831159445,-2.227817196917613
1499369100061,1.8005645838102282,-2.8992141603723667,-1.6174563210497581
1499369100077,2.7771419851987957,-6.622415503166167,-1.739528496223329
1499369100093,3.0212863355459376,-8.45349813076973,-2.8381780727854675
1499369100109,3.3264667734797513,-8.392462043183059,-5.2185854886702145
1499369100125,4.547188525215461,-12.298771648737329,-7.904173342488775
1499369100141,4.730296787975931,-18.463416495002548,-9.185931181811156
1499369100157,3.997863736934505,-24.383916990920852,-11.20012207217519
1499369100173,4.974441138323073,-29.816128786144645,-12.787060349431613
1499369100189,8.6366063935302,-32.44068055237676,-14.373998626688035
1499369100205,10.284580758373295,-31.525139238574866,-14.373998626688035
1499369100221,10.101472495613052,-30.60959792477297,-14.129854276340893
1499369100237,7.782101167315204,-25.60463874265656,-14.068818188753994
1499369100253,1.9226367589837992,-12.726024261844714,-10.284580758373295
1499369100269,-7.782101167315204,1.5564202334630863,-3.7537193865873633
1499369100285,-15.716792553597315,12.298771648737329,0.6408789196611906
1499369100301,-19.9893186846723,13.092240787365427,2.4719615472647547
1499369100317,-22.308690012970146,8.270389868009488,2.410925459678083
1499369100333,-23.83459220263967,1.4953841458761872,1.3733119707026162
1499369100349,-24.811169604028237,-6.317235065232353,0.5188067444876197
1499369100365,-25.787747005416804,-13.153276874952326,0.03051804379333589
1499369100381,-27.313649195086555,-16.02197299153113,1.1902037079423735
1499369100397,-28.229190508888223,-14.007782101167322,1.983672846570471
1499369100413,-29.51094834821083,-11.07804989700162,0.8239871824216607
1499369100429,-30.73167009994654,-8.6366063935302,-0.9460593575952316
1499369100445,-31.342030975814623,-5.401693751430457,-2.655069810025225
1499369100461,-31.280994888227724,-1.739528496223329,-3.875791561760934
1499369100477,-29.571984435797503,1.8005645838102282,-3.6316472114137923
1499369100493,-25.36049439230942,2.04470893415737,-4.547188525215461
1499369100509,-21.026932173647538,0.33569848172737693,-5.2185854886702145
1499369100525,-17.181658655680167,-1.5564202334630863,-5.706874189364498
1499369100541,-13.946746013580423,-1.9226367589837992,-6.195162890058782
1499369100557,-11.871519035629717,0.33569848172737693,-5.645838101777599
1499369100573,-10.89494163424115,2.4719615472647547,-3.814755474174035
1499369100589,-11.322194247348762,3.2043945983061803,-1.983672846570471
1499369100605,-13.092240787365427,1.2512397955290453,-1.1902037079423735
1499369100621,-15.655756466010416,-2.04470893415737,-2.04470893415737
1499369100637,-17.36476691844041,-5.2185854886702145,-3.997863736934505
1499369100653,-17.303730830853738,-6.9886320286868795,-4.791332875562603
1499369100669,-14.740215152208748,-6.927595941100208,-4.730296787975931
1499369100685,-10.89494163424115,-7.049668116273779,-3.7537193865873633
1499369100701,-6.8665598535133086,-8.148317692835917,-3.692683299000464
1499369100717,-4.180971999694748,-8.209353780422589,-4.364080262455218
1499369100733,-1.4953841458761872,-7.17174029144735,-4.180971999694748
1499369100749,1.4343480582895154,-7.4158846417944915,-3.4485389486533222
1499369100765,4.364080262455218,-8.270389868009488,-2.7771419851987957
1499369100781,7.11070420386045,-8.575570305943302,-2.3498893720911838
1499369100797,9.979400320439481,-8.880750743877343,-1.983672846570471
1499369100813,12.848096437018285,-8.33142595559616,-2.227817196917613
1499369100829,15.594720378423744,-7.598992904554734,-3.0823224231326094
1499369100845,18.646524757763018,-6.805523765926637,-3.570611123826893
1499369100861,22.49179827573039,-6.683451590753066,-4.180971999694748
1499369100877,26.031891355763946,-8.880750743877343,-4.9134050507361735
1499369100893,27.496757457846797,-11.07804989700162,-5.828946364538069
1499369100909,26.214999618524416,-11.383230334935433,-6.134126802471883
1499369100925,23.407339589532285,-11.07804989700162,-6.317235065232353
1499369100941,20.660715648126825,-9.979400320439481,-6.561379415579495
1499369100957,19.501029983978015,-8.270389868009488,-6.927595941100208
1499369100974,19.256885633630873,-7.598992904554734,-7.232776379034021
1499369100990,19.073777370870403,-8.026245517662346,-7.476920729381163
1499369101006,18.70756084534969,-8.209353780422589,-7.354848554207592
1499369101022,18.158236057068734,-7.2938124666209205,-6.500343327992596
1499369101038,18.036163881895163,-4.791332875562603,-4.974441138323073
1499369101054,17.48683909361398,-2.7161058976118966,-3.6316472114137923
1499369101070,16.815442130159454,-1.9226367589837992,-2.5940337224383256
1499369101086,16.02197299153113,-2.5940337224383256,-2.3498893720911838
1499369101102,14.92332341496899,-4.180971999694748,-2.655069810025225
1499369101118,13.64156557564661,-3.4485389486533222,-2.7161058976118966
1499369101134,13.214312962538997,-1.1902037079423735,-3.0823224231326094
1499369101150,13.397421225299468,-0.213626306553806,-3.2043945983061803
1499369101166,12.23773556115043,-1.0681315327688026,-3.5095750362402214
1499369101182,10.589761196307336,-2.04470893415737,-3.997863736934505
1499369101198,10.772869459067579,-2.3498893720911838,-4.669260700389032
1499369101214,12.298771648737329,-1.9226367589837992,-4.791332875562603
1499369101230,12.481879911497572,-0.7629510948347615,-4.486152437628789
1499369101246,12.4208438239109,-0.7629510948347615,-4.669260700389032
1499369101262,12.176699473563758,-0.8239871824216607,-4.730296787975931
1499369101278,12.298771648737329,0.33569848172737693,-4.9134050507361735
1499369101294,12.848096437018285,1.5564202334630863,-5.401693751430457
1499369101310,13.214312962538997,1.4343480582895154,-4.60822461280236
1499369101326,13.64156557564661,-1.4953841458761872,-3.5095750362402214
1499369101342,12.848096437018285,-6.195162890058782,-4.547188525215461
1499369101358,11.566338597695903,-10.772869459067579,-6.439307240405924
1499369101374,11.627374685282575,-14.435034714274707,-9.124895094224485
1499369101390,14.373998626688035,-17.42580300602731,-11.810482948043045
1499369101406,19.867246509498727,-20.11139085984587,-11.322194247348762
1499369101422,22.8580148012511,-19.378957808804444,-10.223544670786623
1499369101438,23.773556115052997,-17.48683909361398,-10.040436408026153
1499369101454,24.505989166094423,-17.24269474326684,-9.430075532158298
1499369101470,23.224231326771815,-12.664988174258042,-6.683451590753066
1499369101486,23.285267414358714,-12.176699473563758,-7.721065079728305
1499369101502,24.933241779201808,-17.54787518120088,-10.284580758373295
1499369101518,28.595407034408936,-24.07873655298681,-12.176699473563758
1499369101534,30.73167009994654,-25.05531395437538,-11.932555123216616
1499369101550,31.464103150987967,-21.33211261158158,-7.843137254901876
1499369101566,32.501716639963206,-18.219272144655406,-3.0823224231326094
1499369101582,31.64721141374821,-12.4208438239109,-1.2512397955290453
1499369101598,26.52018005645823,-7.11070420386045,-2.227817196917613
1499369101614,17.79201953154802,-3.997863736934505,-4.9134050507361735
1499369101630,9.918364232852582,-5.279621576256886,-5.889982452124741
1499369101646,5.096513313496644,-6.317235065232353,-3.692683299000464
1499369101662,3.1433585107195086,-6.012054627298312,-0.9460593575952316
1499369101678,1.2512397955290453,1.8005645838102282,1.3733119707026162
1499369101694,-1.983672846570471,13.76363775082018,3.5095750362402214
1499369101710,-5.0354772259097444,21.69832913710229,5.706874189364498
1499369101726,-5.584802014190927,21.57625696192872,3.997863736934505
1499369101742,-1.8616006713969,14.92332341496899,0.7629510948347615
1499369101758,3.0212863355459376,6.012054627298312,-1.983672846570471
1499369101774,5.279621576256886,0.5188067444876197,-3.2043945983061803
1499369101790,4.669260700389032,3.4485389486533222,-2.7161058976118966
1499369101806,1.8005645838102282,12.481879911497572,-0.3967345693140487
1499369101822,-1.2512397955290453,19.378957808804444,2.288853284504512
1499369101838,-2.166781109330941,19.195849546043974,3.3875028610666504
1499369101854,-1.739528496223329,16.26611734187827,2.7161058976118966
1499369101870,-1.1291676203554744,14.98435950255589,1.4343480582895154
1499369101886,-0.5798428320745188,14.618142977035177,1.0070954451819034
1499369101902,-0.2746623941404778,13.519493400473038,0.03051804379333589
1499369101918,-0.33569848172737693,12.4208438239109,-0.5188067444876197
1499369101934,0.213626306553806,10.284580758373295,-0.15259021896690683
1499369101950,1.4953841458761872,8.026245517662346,0.03051804379333589
1499369101966,3.1433585107195086,6.073090714885211,-0.03051804379333589
1499369101982,3.2654306858930795,4.180971999694748,-0.9460593575952316
1499369101998,2.227817196917613,4.60822461280236,-1.9226367589837992
1499369102014,0.7019150072480898,7.598992904554734,-3.4485389486533222
1499369102030,-0.09155413138023505,11.20012207217519,-4.669260700389032
1499369102046,-0.213626306553806,9.67421988250544,-4.42511635004189
1499369102062,-0.33569848172737693,5.157549401083315,-4.058899824521177
1499369102078,-0.45777065690094787,3.5095750362402214,-3.2654306858930795
1499369102094,-0.6408789196611906,5.645838101777599,-2.7771419851987957
1499369102110,-0.5188067444876197,8.148317692835917,-3.0212863355459376
1499369102126,-0.33569848172737693,9.185931181811156,-3.692683299000464
1499369102142,-0.2746623941404778,8.51453421835663,-4.669260700389032
1499369102158,0.09155413138023505,7.4158846417944915,-4.791332875562603
1499369102174,1.1291676203554744,4.42511635004189,-4.42511635004189
1499369102190,1.3733119707026162,2.7161058976118966,-4.42511635004189
1499369102206,0.33569848172737693,4.669260700389032,-4.364080262455218
1499369102222,-1.1902037079423735,7.721065079728305,-3.875791561760934
1499369102238,-1.8005645838102282,7.843137254901876,-3.0823224231326094
1499369102254,-0.8850232700083325,5.584802014190927,-2.8381780727854675
1499369102270,-0.2746623941404778,4.242008087281647,-2.227817196917613
1499369102286,-0.8850232700083325,3.4485389486533222,-2.105745021744042
1499369102302,-1.8616006713969,3.1433585107195086,-2.410925459678083
1499369102318,-2.3498893720911838,3.5095750362402214,-3.0212863355459376
1499369102334,-1.8616006713969,5.523765926604028,-3.0823224231326094
1499369102350,-1.1902037079423735,8.880750743877343,-2.04470893415737
1499369102366,-0.7629510948347615,9.67421988250544,-1.1291676203554744
1499369102383,-0.5798428320745188,6.073090714885211,-1.2512397955290453
1499369102399,-0.7019150072480898,2.5940337224383256,-1.4343480582895154
1499369102415,-0.6408789196611906,1.4343480582895154,-1.739528496223329
1499369102431,-0.7629510948347615,3.5095750362402214,-2.288853284504512
1499369102447,-1.4953841458761872,7.232776379034021,-2.410925459678083
1499369102463,-2.166781109330941,9.613183794918768,-2.288853284504512
1499369102479,-1.6174563210497581,8.148317692835917,-1.5564202334630863
1499369102495,-0.09155413138023505,3.936827649347606,-0.5188067444876197
1499369102511,1.0681315327688026,0.5798428320745188,0.45777065690094787
1499369102527,0.45777065690094787,1.0681315327688026,1.2512397955290453
1499369102543,-0.7019150072480898,1.9226367589837992,1.4343480582895154
1499369102559,-0.9460593575952316,1.0681315327688026,1.6784924086366573
1499369102575,-0.45777065690094787,0.09155413138023505,1.8616006713969
1499369102591,-0.45777065690094787,0.213626306553806,1.983672846570471
1499369102607,-0.33569848172737693,-0.2746623941404778,2.410925459678083
1499369102623,-1.0681315327688026,-0.3967345693140487,2.288853284504512
1499369102639,-2.7771419851987957,2.3498893720911838,1.1291676203554744
1499369102655,-4.242008087281647,6.134126802471883,0.6408789196611906
1499369102671,-4.60822461280236,6.622415503166167,-0.2746623941404778
1499369102687,-5.157549401083315,7.843137254901876,-2.105745021744042
1499369102703,-5.279621576256886,10.89494163424115,-3.3875028610666504
1499369102719,-3.936827649347606,8.392462043183059,-3.0212863355459376
1499369102735,-0.5798428320745188,1.6784924086366573,-1.983672846570471
1499369102751,0.15259021896690683,0.9460593575952316,-1.8616006713969
1499369102767,1.9226367589837992,-0.09155413138023505,-1.8005645838102282
1499369102783,3.0823224231326094,-0.5798428320745188,-1.4343480582895154
1499369102799,3.1433585107195086,-0.213626306553806,0.33569848172737693
1499369102815,5.279621576256886,-2.9602502479590385,3.692683299000464
1499369102831,8.026245517662346,-5.706874189364498,7.4158846417944915
1499369102847,7.354848554207592,-7.2938124666209205,9.063859006637585
1499369102863,5.95101853971164,-8.880750743877343,8.880750743877343
1499369102879,5.157549401083315,-10.89494163424115,7.354848554207592
1499369102895,4.486152437628789,-7.4158846417944915,5.889982452124741
1499369102911,4.058899824521177,-2.227817196917613,4.42511635004189
1499369102927,3.875791561760934,-0.15259021896690683,2.532997634851654
1499369102943,3.2043945983061803,0.8239871824216607,0.8850232700083325
1499369102959,2.288853284504512,0.33569848172737693,1.0681315327688026
1499369102975,1.6784924086366573,-1.0070954451819034,1.739528496223329
1499369102991,2.04470893415737,-1.3733119707026162,1.739528496223329
1499369103007,3.0823224231326094,-1.1291676203554744,1.6174563210497581
1499369103023,3.5095750362402214,-0.45777065690094787,1.4953841458761872
1499369103039,2.9602502479590385,0.7629510948347615,1.739528496223329
1499369103055,2.532997634851654,0.8850232700083325,2.5940337224383256
1499369103071,2.3498893720911838,0.03051804379333589,3.6316472114137923
1499369103087,1.8616006713969,-1.5564202334630863,4.180971999694748
1499369103103,1.3122758831159445,-3.3875028610666504,3.814755474174035
1499369103119,1.3733119707026162,-4.730296787975931,3.1433585107195086
1499369103135,1.983672846570471,-6.073090714885211,2.8992141603723667
1499369103151,2.410925459678083,-5.889982452124741,3.3875028610666504
1499369103167,2.7771419851987957,-4.42511635004189,4.180971999694748
1499369103183,3.1433585107195086,-4.303044174868319,6.378271152819025
1499369103199,4.242008087281647,-11.322194247348762,8.941786831464015
1499369103215,5.157549401083315,-22.49179827573039,9.430075532158298
1499369103231,6.439307240405924,-27.313649195086555,7.904173342488775
1499369103247,8.087281605249018,-23.102159151598244,6.256198977645454
1499369103263,9.369039444571627,-22.003509575036105,6.744487678339738
1499369103279,14.679179064621849,-33.29518577859176,6.500343327992596
1499369103295,21.69832913710229,-47.69970244907313,6.622415503166167
1499369103311,22.003509575036105,-60.57831692988475,3.692683299000464
1499369103327,18.036163881895163,-71.32066834515899,1.1291676203554744
1499369103343,14.129854276340893,-72.78553444724184,1.983672846570471
1499369103359,12.23773556115043,-76.63080796520944,1.2512397955290453
1499369103375,14.007782101167322,-70.58823529411757,-4.42511635004189
1499369103391,9.185931181811156,-34.88212405584818,0.213626306553806
1499369103407,8.941786831464015,-2.105745021744042,4.486152437628789
1499369103423,11.505302510109004,-1.5564202334630863,-0.03051804379333589
1499369103439,7.232776379034021,-31.89135576409558,-6.378271152819025
1499369103455,3.6316472114137923,-42.084382391088866,-9.430075532158298
1499369103471,3.2654306858930795,-30.060273136491787,-7.11070420386045
1499369103487,6.073090714885211,-4.180971999694748,-4.119935912108076
1499369103503,7.904173342488775,32.31860837720296,0.8850232700083325
1499369103519,11.871519035629717,63.81322957198472,-0.213626306553806
1499369103535,9.430075532158298,77.18013275349085,-6.9886320286868795
1499369103551,10.772869459067579,61.49385824368619,-11.444266422522333
1499369103567,16.44922560463874,38.17807278553437,-4.303044174868319
1499369103583,20.538643472953254,19.745174334325156,7.4158846417944915
1499369103599,18.463416495002548,17.36476691844041,17.48683909361398
1499369103615,9.613183794918768,34.88212405584795,24.505989166094423
1499369103631,2.105745021744042,53.98641947051192,20.294499122606112
1499369103647,4.42511635004189,61.18867780575238,14.251926451514464
1499369103663,13.702601663233281,58.686198214694286,14.435034714274707
1499369103679,15.716792553597315,54.29159990844573,19.1348134584573
1499369103695,2.5940337224383256,57.221332112611435,25.23842221713585
1499369103711,-14.679179064621849,69.06233310444804,32.92896925307082
1499369103727,-27.61882963302037,74.86076142519278,36.591134508277946
1499369103743,-25.42153047989609,60.82246128023189,30.36545357442583
1499369103759,-12.603952086671143,33.4172579537651,20.904859998473967
1499369103776,-1.8005645838102282,24.811169604028237,14.679179064621849
1499369103792,1.6174563210497581,39.88708323796436,15.228503852903032
1499369103808,-7.11070420386045,64.91187914854663,18.280308232242305
1499369103824,-9.491111619745197,65.2170595864809,19.9282825970854
1499369103840,2.105745021744042,30.54856183718607,21.942473487449433
1499369103856,9.430075532158298,-2.7771419851987957,17.36476691844041
1499369103872,10.955977721828049,-14.740215152208748,22.186617837796575
1499369103888,14.068818188753994,-34.45487144274057,34.08865491721963
1499369103904,16.32715342946517,-61.67696650644689,38.971541924162466
1499369103920,12.787060349431613,-84.01617456321037,27.252613107499656
1499369103936,7.17174029144735,-102.63218127718028,8.575570305943302
1499369103952,0.8239871824216607,-102.26596475165957,-2.227817196917613
1499369103968,-1.6784924086366573,-79.62157625696182,-3.7537193865873633
1499369103984,9.185931181811156,-38.23910887312127,-4.058899824521177
1499369104000,20.477607385366582,-2.9602502479590385,-5.462729839017356
1499369104016,23.83459220263967,34.14969100480653,-11.871519035629717
1499369104032,18.463416495002548,63.75219348439805,-15.716792553597315
1499369104048,20.416571297779683,35.79766536964962,-21.33211261158158
1499369104064,33.23414969100463,-3.3875028610666504,-16.876478217746126
1499369104080,41.7792019531546,-6.561379415579495,-6.256198977645454
1499369104096,38.23910887312104,2.532997634851654,4.547188525215461
1499369104112,16.26611734187827,15.899900816357558,8.6366063935302
1499369104128,0.6408789196611906,28.96162355992965,5.645838101777599
1499369104144,-13.092240787365427,29.38887617303726,10.162508583199724
1499369104160,-23.468375677118956,33.53933012893867,19.195849546043974
1499369104176,-27.86297398336751,34.2717631799801,25.23842221713585
1499369104192,-39.58190280003055,34.08865491721963,28.107118333714652
1499369104208,-49.591821164263365,43.42717631799792,17.853055619134693
1499369104224,-40.92469672693983,47.943846799420044,7.4158846417944915
1499369104240,-36.957351033798886,50.32425421530479,10.223544670786623
1499369104256,-40.741588464179586,52.82673380636288,17.853055619134693
1499369104272,-45.50240329594885,63.69115739681092,26.092927443350845
1499369104288,-46.41794460975052,66.8039978637371,28.595407034408936
1499369104304,-34.57694361791414,48.24902723735386,18.95170519569683
1499369104320,-13.45845731288614,21.33211261158158,13.946746013580423
1499369104336,0.03051804379333589,2.5940337224383256,17.181658655680167
1499369104352,6.378271152819025,-3.0823224231326094,18.341344319828977
1499369104368,8.33142595559616,4.180971999694748,16.32715342946517
1499369104384,4.364080262455218,7.476920729381163,13.58052948805971
1499369104400,3.692683299000464,5.0354772259097444,10.711833371480907
1499369104416,13.519493400473038,-0.5798428320745188,9.67421988250544
1499369104432,17.24269474326684,8.758678568703772,10.589761196307336
1499369104448,3.936827649347606,17.853055619134693,7.721065079728305
1499369104464,-4.364080262455218,16.876478217746126,-0.09155413138023505
1499369104480,-11.810482948043045,17.42580300602731,-7.965209430075447
1499369104496,-14.80125123979542,33.11207751583106,-9.430075532158298
1499369104512,-15.472648203250174,45.25825894560148,-5.706874189364498
1499369104528,-19.317921721217544,51.36186770428003,-3.3875028610666504
1499369104544,-25.543602655069662,50.93461509117242,-2.8381780727854675
1499369104560,-32.01342793926915,43.67132066834506,-2.7161058976118966
1499369104576,-36.835278858625315,30.4264896620125,-5.645838101777599
1499369104592,-38.056000610361025,21.39314869916825,-10.833905546654478
1499369104608,-35.98077363241032,19.867246509498727,-12.664988174258042
1499369104624,-34.271763179980326,21.881437399862534,-9.73525597009234
1499369104640,-32.99000534065772,20.599679560540153,-5.645838101777599
1499369104656,-28.900587472342977,14.007782101167322,0.8850232700083325
1499369104672,-25.23842221713585,8.33142595559616,11.07804989700162
1499369104688,-21.026932173647538,11.871519035629717,22.67490653849086
1499369104704,-12.726024261844714,20.05035477225897,31.097886625467254
1499369104720,-2.166781109330941,21.69832913710229,35.49248493171581
1499369104736,9.85732814526591,10.467689021133765,36.346990157930804
1499369104752,18.524452582589447,-6.195162890058782,37.628747997253186
1499369104768,18.158236057068734,-16.571297779812312,41.10780498970007
1499369104784,15.411612115663274,-7.537956816968062,44.64789806973363
1499369104800,14.98435950255589,18.219272144655406,43.42717631799792
1499369104816,18.463416495002548,33.722438391698915,36.71320668345152
1499369104832,19.623102159151586,12.787060349431613,23.773556115052997
1499369104848,16.44922560463874,-10.345616845960194,11.871519035629717
1499369104864,12.909132524605184,-6.744487678339738,7.2938124666209205
1499369104880,8.575570305943302,17.181658655680167,2.655069810025225
1499369104896,9.67421988250544,20.843823910887295,1.6174563210497581
1499369104912,15.716792553597315,7.049668116273779,2.3498893720911838
1499369104928,17.730983443961122,-4.730296787975931,8.148317692835917
1499369104944,21.637293049515392,-16.32715342946517,16.26611734187827
1499369104960,24.994277866788707,-22.125581750209676,18.463416495002548
1499369104976,22.980086976424673,-22.61387045090396,13.519493400473038
1499369104992,13.58052948805971,-12.481879911497572,5.462729839017356
1499369105008,3.6316472114137923,12.970168612191856,2.8992141603723667
1499369105024,1.9226367589837992,37.689784084840085,5.2185854886702145
1499369105040,4.058899824521177,56.54993514915668,6.561379415579495
1499369105056,1.739528496223329,57.038223849850965,6.195162890058782
1499369105072,-2.4719615472647547,57.28236820019811,1.6174563210497581
1499369105088,-8.148317692835917,68.45197222858042,-5.157549401083315
1499369105104,-13.519493400473038,79.86572060730941,-12.542915999084471
1499369105120,-14.92332341496899,90.8522163729308,-17.79201953154802
1499369105137,-12.787060349431613,89.57045853360796,-14.557106889448278
1499369105153,-7.354848554207592,56.0616464484624,-3.570611123826893
1499369105169,0.15259021896690683,9.55214770733187,1.8005645838102282
1499369105185,1.9226367589837992,-23.224231326771815,3.997863736934505
1499369105201,1.5564202334630863,-61.92111085679403,9.918364232852582
1499369105217,5.2185854886702145,-104.52429999237052,8.51453421835663
1499369105233,4.42511635004189,-126.863508049134,-2.8381780727854675
1499369105249,3.0212863355459376,-128.51148241397732,-10.955977721828049
1499369105265,-1.8005645838102282,-118.19638361181046,-14.92332341496899
1499369105281,-4.180971999694748,-91.82879377431891,-17.181658655680167
1499369105297,-5.76791027695117,-47.94384679942027,-15.960936903944457
1499369105313,-0.8239871824216607,-11.627374685282575,-9.55214770733187
1499369105329,1.9226367589837992,-9.185931181811156,-9.67421988250544
1499369105345,2.7161058976118966,-19.80621042191183,-12.603952086671143
1499369105361,1.3733119707026162,-15.777828641183987,-11.505302510109004
1499369105377,-5.3406576638437855,18.158236057068734,-9.491111619745197
1499369105393,-12.4208438239109,68.0247196154728,-5.462729839017356
1499369105409,-14.007782101167322,87.19005111772367,-4.60822461280236
1499369105425,-16.32715342946517,87.31212329289701,-7.843137254901876
1499369105441,-20.599679560540153,87.06797894254987,-10.589761196307336
1499369105457,-17.36476691844041,77.54634927901134,-11.627374685282575
1499369105473,-0.03051804379333589,37.628747997253186,-2.9602502479590385
1499369105489,7.354848554207592,4.9134050507361735,-2.3498893720911838
1499369105505,12.176699473563758,-22.247653925383247,4.119935912108076
1499369105521,15.533684290836845,-49.28664072632955,15.350576028076603
1499369105537,21.45418478675515,-79.92675669489586,27.252613107499656
1499369105553,24.444953078507524,-93.72091248950937,27.130540932326085
1499369105569,21.942473487449433,-85.35896849011965,19.80621042191183
1499369105585,17.303730830853738,-62.836652170595926,12.970168612191856
1499369105601,11.871519035629717,-45.868619821469565,8.758678568703772
1499369105617,6.317235065232353,-30.4875257495994,9.430075532158298
1499369105633,4.547188525215461,-17.853055619134693,13.885709925993751
1499369105649,6.805523765926637,-7.721065079728305,13.275349050125897
1499369105665,8.941786831464015,-2.7161058976118966,6.500343327992596
1499369105681,8.880750743877343,-3.997863736934505,0.03051804379333589
1499369105697,5.889982452124741,-7.11070420386045,-2.8992141603723667
1499369105713,3.3264667734797513,-9.246967269398056,-3.0823224231326094
1499369105729,2.7771419851987957,-9.491111619745197,0.8850232700083325
1499369105745,2.7771419851987957,-1.6784924086366573,6.256198977645454
1499369105761,0.8239871824216607,7.721065079728305,8.392462043183059
1499369105777,-0.09155413138023505,9.063859006637585,6.378271152819025
1499369105793,-0.8239871824216607,14.92332341496899,1.4343480582895154
1499369105809,-6.012054627298312,29.08369573510322,-2.655069810025225
1499369105825,-7.721065079728305,36.285954070343905,-4.486152437628789
1499369105841,-6.805523765926637,28.534370946822264,-0.2746623941404778
1499369105857,-0.15259021896690683,14.740215152208748,5.401693751430457
1499369105873,-0.09155413138023505,8.941786831464015,4.791332875562603
1499369105889,0.6408789196611906,3.936827649347606,6.378271152819025
1499369105905,5.096513313496644,-6.8665598535133086,7.537956816968062
1499369105921,7.904173342488775,-18.280308232242305,5.2185854886702145
1499369105937,4.119935912108076,-21.69832913710229,0.33569848172737693
1499369105953,-1.3733119707026162,-20.294499122606112,-3.0212863355459376
1499369105969,-5.584802014190927,-15.228503852903032,-2.4719615472647547
1499369105985,-6.561379415579495,-10.955977721828049,-1.6784924086366573
1499369106001,-4.9134050507361735,-11.261158159761862,-2.532997634851654
1499369106017,-3.2043945983061803,-11.932555123216616,-3.692683299000464
1499369106033,-1.9226367589837992,-10.101472495613052,-3.1433585107195086
1499369106049,-2.166781109330941,-7.2938124666209205,-1.4343480582895154
1499369106065,-5.462729839017356,-3.1433585107195086,-1.1291676203554744
1499369106081,-6.500343327992596,-1.4343480582895154,-0.6408789196611906
1499369106097,-4.119935912108076,-2.9602502479590385,0.15259021896690683
1499369106113,0.2746623941404778,-6.683451590753066,-1.0070954451819034
1499369106129,3.6316472114137923,-10.955977721828049,-2.166781109330941
1499369106145,2.8992141603723667,-9.124895094224485,-1.983672846570471
1499369106161,-2.5940337224383256,0.2746623941404778,-0.9460593575952316
1499369106177,-9.67421988250544,9.796292057679011,-2.532997634851654
1499369106193,-14.92332341496899,15.716792553597315,-10.89494163424115
1499369106209,-27.191577019912984,34.821087968261054,-26.7032883192187
1499369106225,-41.53505760280768,50.20218204013099,-38.1170366979477
1499369106241,-52.338445105668825,52.82673380636288,-45.19722285801481
1499369106257,-63.38597695887688,46.41794460975029,-43.244068055237676
1499369106273,-65.70534828717473,49.591821164263365,-44.58686198214696
1499369106289,-61.67696650644689,53.86434729533812,-50.812542915999074
1499369106305,-57.404440375371905,50.446326390478134,-52.277409018081926
1499369106321,-50.20218204013122,43.060959792477206,-47.8217746242467
1499369106337,-41.53505760280768,41.7792019531546,-41.41298542763411
1499369106353,-35.85870145723675,52.094300755321456,-34.69901579308771
1499369106369,-28.656443121995835,58.075837338826204,-28.595407034408936
1499369106385,-7.843137254901876,22.186617837796575,-12.848096437018285
1499369106401,0.5798428320745188,6.256198977645454,-3.6316472114137923
1499369106417,8.6366063935302,-8.270389868009488,5.645838101777599
1499369106433,14.740215152208748,-22.064545662623004,14.373998626688035
1499369106449,20.416571297779683,-39.88708323796459,20.843823910887295
1499369106465,21.942473487449433,-45.807583733882666,21.57625696192872
1499369106481,21.881437399862534,-46.9672693980317,17.48683909361398
1499369106497,21.39314869916825,-42.81681544213029,11.505302510109004
1499369106513,19.80621042191183,-29.877164873731545,7.476920729381163
1499369106529,18.280308232242305,-11.749446860456146,6.195162890058782
1499369106546,16.2050812542916,6.317235065232353,5.95101853971164
1499369106562,13.336385137712568,15.167467765316132,5.2185854886702145
1499369106578,11.688410772869474,15.655756466010416,3.3264667734797513
1499369106594,10.406652933546866,8.6366063935302,1.1902037079423735
1499369106610,8.45349813076973,3.3264667734797513,-1.6784924086366573
1499369106626,6.195162890058782,5.279621576256886,-4.364080262455218
1499369106642,3.997863736934505,10.467689021133765,-6.622415503166167
1499369106658,2.7771419851987957,17.36476691844041,-7.660028992141633
1499369106674,2.655069810025225,17.730983443961122,-5.706874189364498
1499369106690,3.4485389486533222,9.979400320439481,-3.7537193865873633
1499369106706,5.279621576256886,5.3406576638437855,-2.532997634851654
1499369106722,5.645838101777599,7.843137254901876,-3.0212863355459376
1499369106738,5.279621576256886,10.284580758373295,-1.983672846570471
1499369106754,4.974441138323073,8.270389868009488,-1.5564202334630863
1499369106770,3.3875028610666504,4.791332875562603,-2.227817196917613
1499369106786,1.8616006713969,0.8239871824216607,-3.5095750362402214
1499369106802,1.2512397955290453,2.04470893415737,-5.3406576638437855
1499369106818,-0.45777065690094787,16.754406042572555,-5.401693751430457
1499369106834,-4.364080262455218,40.00915541313793,-4.547188525215461
1499369106850,-5.523765926604028,45.80758373388244,-2.166781109330941
1499369106866,-5.3406576638437855,34.69901579308748,-2.532997634851654
1499369106882,-2.227817196917613,24.200808728160382,-2.9602502479590385
1499369106898,5.523765926604028,9.85732814526591,-0.7629510948347615
1499369106914,10.528725108720437,2.410925459678083,0.2746623941404778
1499369106930,14.129854276340893,3.814755474174035,4.242008087281647
1499369106946,18.341344319828977,6.622415503166167,9.185931181811156
1499369106962,22.064545662623004,6.073090714885211,13.336385137712568
1499369106978,25.60463874265656,6.8665598535133086,16.26611734187827
1499369106994,27.74090180819394,13.153276874952326,18.70756084534969
1499369107010,27.98504615854108,18.58548867017612,20.11139085984587
1499369107026,28.04608224612798,20.11139085984587,18.646524757763018
1499369107042,26.39810788128466,22.49179827573039,14.80125123979542
1499369107058,23.7125200274661,27.80193789578084,12.054627298390187
1499369107074,22.73594262607753,25.116350041962278,10.772869459067579
1499369107090,20.965896086060866,16.510261692225413,8.880750743877343
1499369107106,17.42580300602731,11.01701380941472,8.148317692835917
1499369107122,13.76363775082018,10.89494163424115,6.500343327992596
1499369107138,9.308003356984727,14.068818188753994,3.5095750362402214
1499369107154,7.354848554207592,9.85732814526591,1.2512397955290453
1499369107170,7.049668116273779,4.486152437628789,-0.3967345693140487
1499369107186,7.17174029144735,3.997863736934505,-1.1291676203554744
1499369107202,5.95101853971164,2.7771419851987957,-0.9460593575952316
1499369107218,4.9134050507361735,-3.1433585107195086,-0.8239871824216607
1499369107234,3.7537193865873633,-2.227817196917613,-1.0070954451819034
1499369107250,2.3498893720911838,4.852368963149502,-0.33569848172737693
1499369107266,1.6174563210497581,3.3264667734797513,0.09155413138023505
1499369107282,1.9226367589837992,-1.2512397955290453,-0.2746623941404778
1499369107298,2.105745021744042,-3.936827649347606,0.15259021896690683
1499369107314,2.04470893415737,-1.3122758831159445,0.9460593575952316
1499369107330,1.9226367589837992,-1.6784924086366573,1.6174563210497581
1499369107346,1.2512397955290453,-1.3733119707026162,1.3122758831159445
1499369107362,0.45777065690094787,0.09155413138023505,0.8239871824216607
1499369107378,0.6408789196611906,1.1291676203554744,0.45777065690094787
1499369107394,1.983672846570471,1.4343480582895154,-0.09155413138023505
1499369107410,3.6316472114137923,3.2043945983061803,-1.1291676203554744
1499369107426,4.242008087281647,2.8992141603723667,-1.1902037079423735
1499369107442,3.692683299000464,2.532997634851654,-0.09155413138023505
1499369107458,2.3498893720911838,6.439307240405924,0.8239871824216607
1499369107474,1.8005645838102282,8.6366063935302,1.3733119707026162
1499369107490,2.655069810025225,7.4158846417944915,2.105745021744042
1499369107506,3.814755474174035,4.791332875562603,2.9602502479590385
1499369107522,4.303044174868319,4.180971999694748,2.5940337224383256
1499369107538,4.669260700389032,6.500343327992596,2.105745021744042
1499369107554,4.60822461280236,7.232776379034021,3.1433585107195086
1499369107570,4.669260700389032,7.537956816968062,4.242008087281647
1499369107586,5.0354772259097444,6.134126802471883,4.303044174868319
1499369107602,5.2185854886702145,0.5798428320745188,3.0823224231326094
1499369107618,4.852368963149502,-5.096513313496644,1.983672846570471
1499369107634,4.42511635004189,-8.270389868009488,1.4953841458761872
1499369107650,4.60822461280236,-10.650797283894008,2.4719615472647547
1499369107666,4.42511635004189,-17.853055619134693,6.683451590753066
1499369107682,4.364080262455218,-37.750820172426984,14.007782101167322
1499369107698,11.566338597695903,-61.493858243686645,22.552834363317288
1499369107714,16.998550392919697,-72.41931792172113,23.102159151598244
1499369107730,20.599679560540153,-68.20782787823305,21.39314869916825
1499369107746,32.562752727550105,-65.76638437476163,21.881437399862534
1499369107762,42.69474326695649,-51.30083161669336,22.49179827573039
1499369107778,48.126955062180514,-26.58121614404513,24.872205691615136
1499369107794,48.126955062180514,-4.852368963149502,28.16815442130155
1499369107810,45.319295033188155,1.6784924086366573,31.158922713053926
1499369107826,39.27672236209651,3.6316472114137923,31.464103150987967
1499369107842,33.600366216525344,9.796292057679011,28.900587472342977
1499369107858,30.36545357442583,16.08300907911803,25.17738612954895
1499369107874,27.92401007095441,17.24269474326684,22.186617837796575
1499369107890,25.48256656748299,14.007782101167322,19.073777370870403
1499369107906,21.087968261234437,14.98435950255589,15.533684290836845
1499369107922,17.120622568093268,15.777828641183987,14.190890363927565
1499369107939,15.411612115663274,8.819714656290444,14.007782101167322
1499369107955,13.58052948805971,3.0823224231326094,10.833905546654478
1499369107971,9.491111619745197,2.227817196917613,6.317235065232353
1499369107987,4.669260700389032,0.2746623941404778,1.1902037079423735
1499369108003,-0.9460593575952316,-2.5940337224383256,-3.570611123826893
1499369108019,-4.303044174868319,-7.2938124666209205,-7.354848554207592
1499369108035,-4.42511635004189,-12.054627298390187,-8.697642481116873
1499369108051,-2.288853284504512,-15.045395590142562,-7.049668116273779
1499369108067,0.6408789196611906,-12.4208438239109,-4.058899824521177
1499369108083,1.3122758831159445,-4.486152437628789,-2.166781109330941
1499369108099,0.5798428320745188,1.4343480582895154,-1.2512397955290453
1499369108115,-0.2746623941404778,0.3967345693140487,-1.5564202334630863
1499369108131,-1.3122758831159445,-1.739528496223329,-2.8992141603723667
1499369108147,-2.9602502479590385,0.3967345693140487,-4.486152437628789
1499369108163,-2.7161058976118966,3.2654306858930795,-4.42511635004189
1499369108179,-1.739528496223329,3.6316472114137923,-3.2654306858930795
1499369108195,-1.1902037079423735,6.927595941100208,-1.6174563210497581
1499369108211,-0.8239871824216607,5.584802014190927,0.6408789196611906
1499369108227,-0.9460593575952316,2.532997634851654,-0.15259021896690683
1499369108243,-1.3733119707026162,1.9226367589837992,-2.3498893720911838
1499369108259,-1.4953841458761872,2.7161058976118966,-3.997863736934505
1499369108275,-0.8239871824216607,2.4719615472647547,-3.692683299000464
1499369108291,1.3733119707026162,-0.9460593575952316,-2.288853284504512
1499369108307,1.739528496223329,0.9460593575952316,-2.8992141603723667
1499369108323,-1.4953841458761872,11.932555123216616,-3.3875028610666504
1499369108339,-5.462729839017356,24.383916990920852,-3.936827649347606
1499369108355,-8.575570305943302,30.792706187533213,-6.683451590753066
1499369108371,-6.561379415579495,27.86297398336751,-6.622415503166167
1499369108387,2.166781109330941,8.392462043183059,-4.242008087281647
1499369108403,4.180971999694748,-0.7019150072480898,-4.119935912108076
1499369108419,4.547188525215461,-6.256198977645454,1.6784924086366573
1499369108435,4.669260700389032,-14.98435950255589,5.584802014190927
1499369108451,6.073090714885211,-27.496757457846797,5.096513313496644
1499369108467,5.645838101777599,-40.436408026245545,0.7019150072480898
1499369108483,5.584802014190927,-47.88281071183337,-2.7161058976118966
1499369108499,5.889982452124741,-47.88281071183337,-3.6316472114137923
1499369108515,4.852368963149502,-39.03257801174959,-3.5095750362402214
1499369108531,3.570611123826893,-29.999237048905115,-1.983672846570471
1499369108547,3.2654306858930795,-29.694056610971074,-1.983672846570471
1499369108563,3.0823224231326094,-31.708247501335336,-2.288853284504512
1499369108579,2.410925459678083,-32.01342793926915,-2.166781109330941
1499369108595,2.04470893415737,-29.08369573510322,-2.8992141603723667
1499369108611,1.1291676203554744,-22.61387045090396,-2.7771419851987957
1499369108627,1.0681315327688026,-23.041123064011572,-1.1902037079423735
1499369108643,2.166781109330941,-30.914778362706784,-1.3122758831159445
1499369108659,2.7161058976118966,-30.853742275120112,-2.04470893415737
1499369108675,0.7019150072480898,-21.45418478675515,-2.288853284504512
1499369108691,-1.8005645838102282,-12.848096437018285,-1.8005645838102282
1499369108707,-3.3875028610666504,-13.275349050125897,-3.0212863355459376
1499369108723,-4.242008087281647,-12.298771648737329,-4.9134050507361735
1499369108739,-4.60822461280236,-8.51453421835663,-5.157549401083315
1499369108755,-3.936827649347606,-8.880750743877343,-4.119935912108076
1499369108771,-3.1433585107195086,-10.772869459067579,-4.119935912108076
1499369108787,-3.3875028610666504,-7.2938124666209205,-4.058899824521177
1499369108803,-4.242008087281647,-4.730296787975931,-2.288853284504512
1499369108819,-4.852368963149502,-5.706874189364498,-1.739528496223329
1499369108835,-4.852368963149502,-5.645838101777599,-3.2654306858930795
1499369108851,-6.378271152819025,1.8005645838102282,-5.523765926604028
1499369108867,-8.209353780422589,7.354848554207592,-6.561379415579495
1499369108883,-8.819714656290444,-3.936827649347606,-5.828946364538069
1499369108899,-9.369039444571627,-16.02197299153113,-5.889982452124741
1499369108915,-9.002822919050914,-14.862287327382319,-4.974441138323073
1499369108931,-8.148317692835917,-5.157549401083315,-3.875791561760934
1499369108947,-7.782101167315204,2.5940337224383256,-4.119935912108076
1499369108963,-8.51453421835663,5.279621576256886,-6.195162890058782
1499369108979,-10.223544670786623,4.60822461280236,-8.209353780422589
1499369108995,-12.115663385976859,1.1902037079423735,-9.979400320439481
1499369109011,-14.312962539101136,0.09155413138023505,-11.139085984588291
1499369109027,-14.740215152208748,1.8005645838102282,-11.07804989700162
1499369109043,-14.007782101167322,6.317235065232353,-9.185931181811156
1499369109059,-12.664988174258042,11.07804989700162,-7.476920729381163
1499369109075,-11.139085984588291,13.64156557564661,-7.2938124666209205
1499369109091,-10.589761196307336,16.2050812542916,-9.246967269398056
1499369109107,-11.444266422522333,18.158236057068734,-11.261158159761862
1499369109123,-13.76363775082018,17.853055619134693,-11.993591210803288
1499369109139,-17.853055619134693,20.782787823300396,-12.115663385976859
1499369109155,-20.660715648126825,27.435721370260126,-12.787060349431613
1499369109171,-20.477607385366582,30.121309224078686,-13.275349050125897
1499369109187,-18.70756084534969,29.08369573510322,-14.190890363927565
1499369109203,-16.02197299153113,27.130540932326085,-15.411612115663274
1499369109219,-13.397421225299468,22.552834363317288,-14.740215152208748
1499369109235,-13.702601663233281,17.730983443961122,-14.007782101167322
1499369109251,-16.693369954985883,17.54787518120088,-14.373998626688035
1499369109267,-19.501029983978015,17.79201953154802,-14.435034714274707
1499369109283,-19.9893186846723,13.946746013580423,-16.08300907911803
1499369109300,-18.341344319828977,10.040436408026153,-17.059586480506596
1499369109316,-17.303730830853738,9.369039444571627,-16.2050812542916
1499369109332,-16.998550392919697,8.6366063935302,-14.496070801861606
1499369109348,-14.557106889448278,2.655069810025225,-12.664988174258042
1499369109364,-11.383230334935433,-6.927595941100208,-11.932555123216616
1499369109380,-9.796292057679011,-14.740215152208748,-11.993591210803288
1499369109396,-9.73525597009234,-17.36476691844041,-12.970168612191856
1499369109412,-7.904173342488775,-18.219272144655406,-12.909132524605184
1499369109428,-4.730296787975931,-24.383916990920852,-12.909132524605184
1499369109444,-3.875791561760934,-36.28595407034413,-12.848096437018285
1499369109460,-5.706874189364498,-40.558480201419115,-13.275349050125897
1499369109476,-8.209353780422589,-32.31860837720319,-14.92332341496899
1499369109492,-11.749446860456146,-23.95666437781324,-15.10643167772946
1499369109508,-12.664988174258042,-23.041123064011572,-16.08300907911803
1499369109524,-6.378271152819025,-30.30441748683893,-16.510261692225413
1499369109540,5.401693751430457,-37.81185626001388,-18.036163881895163
1499369109556,13.275349050125897,-33.78347447928604,-21.45418478675515
1499369109572,12.909132524605184,-18.76859693293659,-19.684138246738257
1499369109588,9.124895094224485,-5.76791027695117,-12.664988174258042
1499369109604,6.9886320286868795,-1.8005645838102282,-6.561379415579495
1499369109620,6.683451590753066,-0.6408789196611906,-2.5940337224383256
1499369109636,9.796292057679011,-0.6408789196611906,0.33569848172737693
1499369109652,16.998550392919697,-6.439307240405924,1.8005645838102282
1499369109668,22.79697871366443,-9.613183794918768,1.1902037079423735
1499369109684,17.79201953154802,-5.889982452124741,0.213626306553806
1499369109700,10.345616845960194,4.42511635004189,6.927595941100208
1499369109716,6.744487678339738,12.298771648737329,9.491111619745197
1499369109732,1.983672846570471,8.880750743877343,12.848096437018285
1499369109748,3.3264667734797513,4.9134050507361735,11.444266422522333
1499369109764,8.45349813076973,-2.8381780727854675,6.195162890058782
1499369109780,15.960936903944457,-5.279621576256886,3.6316472114137923
1499369109796,19.378957808804444,-11.444266422522333,2.655069810025225
1499369109812,23.468375677118956,-13.214312962538997,3.814755474174035
1499369109828,21.45418478675515,-9.85732814526591,7.476920729381163
1499369109844,14.129854276340893,-3.1433585107195086,12.23773556115043
1499369109860,7.782101167315204,3.814755474174035,14.740215152208748
1499369109876,6.500343327992596,7.660028992141633,14.373998626688035
1499369109892,8.697642481116873,8.270389868009488,11.20012207217519
1499369109908,9.491111619745197,5.889982452124741,6.9886320286868795
1499369109924,5.0354772259097444,3.936827649347606,4.669260700389032
1499369109940,1.0070954451819034,3.7537193865873633,7.782101167315204
1499369109956,2.166781109330941,3.875791561760934,11.383230334935433
1499369109972,4.486152437628789,1.0070954451819034,14.496070801861606
1499369109988,8.819714656290444,-6.256198977645454,14.068818188753994
1499369110004,8.758678568703772,-5.096513313496644,11.993591210803288
1499369110020,4.547188525215461,4.180971999694748,8.209353780422589
1499369110036,-3.4485389486533222,12.909132524605184,1.4953841458761872
1499369110052,-11.749446860456146,15.411612115663274,-3.997863736934505
1499369110068,-11.20012207217519,1.8616006713969,-3.5095750362402214
1499369110084,-3.4485389486533222,-6.927595941100208,-4.242008087281647
1499369110100,1.8616006713969,-7.660028992141633,-3.570611123826893
1499369110116,0.9460593575952316,-2.7161058976118966,-3.997863736934505
1499369110132,-0.45777065690094787,1.9226367589837992,-7.049668116273779
1499369110148,1.8005645838102282,-0.6408789196611906,-10.223544670786623
1499369110164,4.486152437628789,-3.5095750362402214,-12.176699473563758
1499369110180,7.17174029144735,-13.153276874952326,-10.89494163424115
1499369110196,8.392462043183059,-20.843823910887295,-11.07804989700162
1499369110212,7.4158846417944915,-20.660715648126825,-11.322194247348762
1499369110228,3.936827649347606,-11.261158159761862,-6.439307240405924
1499369110244,2.4719615472647547,1.0681315327688026,-2.5940337224383256
1499369110260,4.242008087281647,6.683451590753066,-0.15259021896690683
1499369110276,6.744487678339738,6.012054627298312,0.03051804379333589
1499369110292,6.8665598535133086,-2.8381780727854675,-0.213626306553806
1499369110308,2.9602502479590385,-7.476920729381163,-1.4343480582895154
1499369110324,-0.7629510948347615,-3.997863736934505,-1.5564202334630863
1499369110340,-2.532997634851654,1.739528496223329,-1.3122758831159445
1499369110356,-2.7161058976118966,5.279621576256886,-1.5564202334630863
1499369110372,-1.5564202334630863,6.073090714885211,-2.7161058976118966
1499369110388,-0.03051804379333589,3.5095750362402214,-3.7537193865873633
1499369110404,0.7019150072480898,0.33569848172737693,-4.242008087281647
1499369110420,0.15259021896690683,1.2512397955290453,-4.303044174868319
1499369110436,-1.4953841458761872,3.570611123826893,-3.814755474174035
1499369110452,-3.5095750362402214,4.974441138323073,-3.2043945983061803
1499369110468,-3.814755474174035,5.462729839017356,-2.410925459678083
1499369110484,-1.6784924086366573,3.0823224231326094,-1.983672846570471
1499369110500,0.5798428320745188,0.2746623941404778,-1.983672846570471
1499369110516,2.8381780727854675,-0.5798428320745188,-1.6174563210497581
1499369110532,4.303044174868319,-0.2746623941404778,-1.8005645838102282
1499369110548,3.692683299000464,0.7019150072480898,-1.6174563210497581
1499369110564,2.288853284504512,2.288853284504512,-1.0070954451819034
1499369110580,1.0070954451819034,2.3498893720911838,-0.213626306553806
1499369110596,0.7629510948347615,2.166781109330941,0.213626306553806
1499369110612,1.4953841458761872,1.6174563210497581,0.45777065690094787
1499369110628,1.5564202334630863,1.0070954451819034,0.03051804379333589
1499369110644,0.9460593575952316,0.8239871824216607,-0.45777065690094787
1499369110660,0.8850232700083325,-0.03051804379333589,-0.9460593575952316
1499369110676,0.7629510948347615,0.2746623941404778,-1.2512397955290453
1499369110692,-0.5798428320745188,2.4719615472647547,-1.0681315327688026
1499369110709,-2.105745021744042,4.303044174868319,-1.3733119707026162
1499369110725,-2.04470893415737,3.1433585107195086,-1.8005645838102282
1499369110741,-0.3967345693140487,0.8239871824216607,-1.8005645838102282
1499369110757,1.1902037079423735,0.213626306553806,-1.6784924086366573
1499369110773,1.8005645838102282,1.3733119707026162,-1.4953841458761872
1499369110789,1.8005645838102282,2.3498893720911838,-1.1291676203554744
1499369110805,1.0070954451819034,2.8992141603723667,-1.3122758831159445
1499369110821,-0.33569848172737693,3.4485389486533222,-1.739528496223329
1499369110837,-1.2512397955290453,4.058899824521177,-2.105745021744042
1499369110853,-0.8239871824216607,6.134126802471883,-2.105745021744042
1499369110869,-1.1902037079423735,12.115663385976859,-3.0823224231326094
1499369110885,-6.378271152819025,23.163195239185143,-4.669260700389032
1499369110901,-16.693369954985883,42.45059891660935,-9.124895094224485
1499369110917,-29.32784008545036,54.90196078431336,-16.08300907911803
1499369110933,-44.220645456626244,62.65354390783568,-26.092927443350845
1499369110949,-63.32494087129021,75.83733882658134,-42.75577935454339
1499369110965,-82.06301976043324,95.97924773022078,-60.33417257953761
1499369110981,-91.5236133363851,107.8812848096436,-70.89341573205161
1499369110997,-87.31212329289679,99.2141603723203,-82.85648889906156
1499369111013,-74.12832837415112,80.96437018387132,-85.72518501564036
1499369111029,-47.57763027389956,56.855115587090495,-82.00198367284656
1499369111045,-18.70756084534969,44.64789806973363,-74.3114366369116
1499369111061,2.166781109330941,46.41794460975029,-75.34905012588683
1499369111077,14.129854276340893,41.04676890211317,-70.03891050583661
1499369111093,15.838864728770886,40.375371938658645,-60.76142519264522
1499369111109,10.650797283894008,34.33279926756677,-42.26749065384911
1499369111125,11.322194247348762,14.435034714274707,-20.11139085984587
1499369111141,13.275349050125897,20.721751735713724,-2.8381780727854675
1499369111157,27.679865720607268,-0.33569848172737693,15.472648203250174
1499369111173,51.23979552910623,-18.036163881895163,33.17311360341796
1499369111189,72.72449835965517,-15.10643167772946,52.15533684290813
1499369111205,82.61234454871465,17.120622568093268,62.59250782024901
1499369111221,78.5229266803999,38.23910887312104,65.46120393682804
1499369111237,68.0247196154728,35.37041275654224,65.40016784924092
1499369111253,61.43282215609952,11.20012207217519,63.01976043335662
1499369111269,54.90196078431336,-19.684138246738257,58.625162127107615
1499369111285,48.004882887006715,-28.900587472342977,50.38529030289146
1499369111301,41.65712977798103,-32.07446402685605,42.32852674143578
1499369111317,32.62378881513678,-32.623788815137004,34.33279926756677
1499369111333,19.867246509498727,-31.464103150988194,29.51094834821083
1499369111349,8.51453421835663,-26.58121614404513,26.764324406805372
1499369111365,-1.2512397955290453,-12.4208438239109,15.228503852903032
1499369111381,-17.42580300602731,0.5188067444876197,10.711833371480907
1499369111397,-22.8580148012511,11.627374685282575,13.275349050125897
1499369111413,-27.313649195086555,23.407339589532285,15.716792553597315
1499369111429,-27.557793545433697,27.069504844739413,16.571297779812312
1499369111445,-26.6422522316318,25.05531395437538,13.153276874952326
1499369111461,-25.05531395437538,19.073777370870403,6.195162890058782
1499369111477,-21.39314869916825,7.904173342488775,-1.3733119707026162
1499369111493,-16.26611734187827,-1.1902037079423735,-7.354848554207592
1499369111509,-10.833905546654478,-5.096513313496644,-10.772869459067579
1499369111525,-8.51453421835663,-2.227817196917613,-11.383230334935433
1499369111541,-7.049668116273779,6.744487678339738,-8.941786831464015
1499369111557,-4.42511635004189,9.67421988250544,-5.95101853971164
1499369111573,-1.1291676203554744,5.889982452124741,-3.6316472114137923
1499369111589,2.7771419851987957,1.8005645838102282,-1.3122758831159445
1499369111605,4.547188525215461,1.2512397955290453,-1.0070954451819034
1499369111621,4.364080262455218,2.9602502479590385,-1.983672846570471
1499369111637,2.5940337224383256,5.523765926604028,-3.2654306858930795
1499369111653,-0.5798428320745188,9.918364232852582,-4.303044174868319
1499369111669,-2.7771419851987957,14.679179064621849,-4.303044174868319
1499369111685,-2.8992141603723667,15.472648203250174,-3.570611123826893
1499369111701,0.03051804379333589,11.383230334935433,-3.5095750362402214
1499369111717,2.655069810025225,8.758678568703772,-4.547188525215461
1499369111733,2.105745021744042,8.026245517662346,-5.523765926604028
1499369111749,0.7019150072480898,6.256198977645454,-4.9134050507361735
1499369111765,-0.7019150072480898,3.570611123826893,-3.5095750362402214
1499369111781,-2.5940337224383256,5.3406576638437855,-2.7161058976118966
1499369111797,-4.547188525215461,13.824673838406852,-3.6316472114137923
1499369111813,-4.547188525215461,19.256885633630873,-3.570611123826893
1499369111829,-1.0681315327688026,12.787060349431613,-2.7161058976118966
1499369111845,2.532997634851654,2.7771419851987957,-2.655069810025225
1499369111861,3.0212863355459376,-3.2043945983061803,-3.1433585107195086
1499369111877,1.1291676203554744,-2.9602502479590385,-3.4485389486533222
1499369111893,-0.213626306553806,0.213626306553806,-3.1433585107195086
1499369111909,-0.7019150072480898,1.983672846570471,-2.532997634851654
1499369111925,0.2746623941404778,0.8239871824216607,-1.1291676203554744
1499369111941,1.8616006713969,-2.227817196917613,-0.03051804379333589
1499369111957,2.4719615472647547,-4.730296787975931,0.5188067444876197
1499369111973,1.5564202334630863,-7.782101167315204,0.213626306553806
1499369111989,0.6408789196611906,-11.20012207217519,-0.6408789196611906
1499369112005,-0.09155413138023505,-9.185931181811156,-1.3733119707026162
1499369112021,-0.5798428320745188,-0.09155413138023505,0.2746623941404778
1499369112037,-0.5798428320745188,3.2654306858930795,3.814755474174035
1499369112053,1.4343480582895154,-0.6408789196611906,6.744487678339738
1499369112070,4.364080262455218,-2.3498893720911838,7.721065079728305
1499369112086,6.744487678339738,-3.2043945983061803,7.537956816968062
1499369112102,7.537956816968062,-3.5095750362402214,4.974441138323073
1499369112118,7.049668116273779,-4.9134050507361735,0.8850232700083325
1499369112134,6.500343327992596,-7.049668116273779,-2.410925459678083
1499369112150,5.828946364538069,-7.354848554207592,-3.570611123826893
1499369112166,3.5095750362402214,-5.2185854886702145,-2.8381780727854675
1499369112182,0.09155413138023505,-2.410925459678083,-1.2512397955290453
1499369112198,-1.8616006713969,-1.6174563210497581,-0.6408789196611906
1499369112214,-1.5564202334630863,-3.1433585107195086,-1.1902037079423735
1499369112230,0.3967345693140487,-5.584802014190927,-1.8616006713969
1499369112246,2.532997634851654,-6.561379415579495,-1.739528496223329
1499369112262,3.6316472114137923,-6.195162890058782,-1.2512397955290453
1499369112278,3.0212863355459376,-5.0354772259097444,-0.8850232700083325
1499369112294,2.5940337224383256,-4.242008087281647,-0.7019150072480898
1499369112310,2.288853284504512,-3.7537193865873633,-0.5798428320745188
1499369112326,0.5188067444876197,-0.7629510948347615,-1.2512397955290453
1499369112342,-0.7019150072480898,-0.2746623941404778,-0.3967345693140487
1499369112358,0.2746623941404778,-2.655069810025225,1.0070954451819034
1499369112374,1.3733119707026162,-5.462729839017356,1.5564202334630863
1499369112390,1.5564202334630863,-7.2938124666209205,0.7629510948347615
1499369112406,1.0681315327688026,-7.232776379034021,-0.09155413138023505
1499369112422,-0.03051804379333589,-4.974441138323073,-0.5188067444876197
1499369112438,-0.6408789196611906,-2.7161058976118966,-0.09155413138023505
1499369112454,-0.03051804379333589,-2.166781109330941,0.3967345693140487
1499369112470,1.6174563210497581,-4.60822461280236,-0.09155413138023505
1499369112486,3.0823224231326094,-7.4158846417944915,-0.8239871824216607
1499369112502,3.6316472114137923,-8.026245517662346,-0.9460593575952316
1499369112518,2.5940337224383256,-5.462729839017356,-0.15259021896690683
1499369112534,0.7019150072480898,-2.8381780727854675,0.5188067444876197
1499369112550,-0.15259021896690683,-2.410925459678083,1.0070954451819034
1499369112566,0.8850232700083325,-3.936827649347606,0.9460593575952316
1499369112582,2.7771419851987957,-6.073090714885211,0.09155413138023505
1499369112598,3.814755474174035,-9.369039444571627,-0.33569848172737693
1499369112614,4.303044174868319,-11.444266422522333,0.09155413138023505
1499369112630,4.486152437628789,-10.89494163424115,0.6408789196611906
1499369112646,5.2185854886702145,-10.833905546654478,1.1291676203554744
1499369112662,7.843137254901876,-9.73525597009234,3.0823224231326094
1499369112678,9.979400320439481,-4.669260700389032,6.683451590753066
1499369112694,9.73525597009234,4.791332875562603,12.359807736324
1499369112710,8.758678568703772,11.627374685282575,17.36476691844041
1499369112726,9.185931181811156,23.285267414358714,22.49179827573039
1499369112742,1.739528496223329,38.910505836575794,26.214999618524416
1499369112758,-3.6316472114137923,55.756466010528584,29.08369573510322
1499369112774,-9.491111619745197,68.8181887541009,20.11139085984587
1499369112790,-12.23773556115043,65.64431219958806,10.711833371480907
1499369112806,-7.2938124666209205,53.92538338292479,5.279621576256886
1499369112822,2.7161058976118966,53.68123903257765,1.1291676203554744
1499369112838,8.45349813076973,74.49454489967229,-5.157549401083315
1499369112854,7.721065079728305,90.54703593499653,-13.275349050125897
1499369112870,10.711833371480907,95.30785076676602,-21.57625696192872
1499369112886,19.439993896391115,90.97428854810414,-25.42153047989609
1499369112902,31.158922713053926,89.75356679636843,-22.980086976424673
1499369112918,41.10780498970007,88.16662851911224,-17.120622568093268
1499369112934,49.225604638742425,81.94094758525989,-11.688410772869474
1499369112950,50.99565117875909,69.36751354238231,-7.2938124666209205
1499369112966,49.225604638742425,58.442053864347145,-3.875791561760934
1499369112982,48.98146028839528,53.19295033188337,0.09155413138023505
1499369112998,51.23979552910623,52.52155336842907,3.692683299000464
1499369113014,45.68551155870887,51.97222858014766,6.012054627298312
1499369113030,33.844510566872486,43.67132066834506,7.4158846417944915
1499369113046,24.26184481574728,30.243381399252257,8.026245517662346
1499369113062,16.693369954985883,21.759365224688963,8.026245517662346
1499369113078,10.833905546654478,21.57625696192872,9.308003356984727
1499369113094,6.378271152819025,25.17738612954895,11.07804989700162
1499369113110,0.7019150072480898,26.092927443350845,11.749446860456146
1499369113126,-5.0354772259097444,23.590447852292527,10.89494163424115
1499369113142,-8.819714656290444,18.524452582589447,9.491111619745197
1499369113158,-9.246967269398056,10.711833371480907,8.941786831464015
1499369113174,-10.345616845960194,0.09155413138023505,8.209353780422589
1499369113190,-11.505302510109004,-13.885709925993751,7.660028992141633
1499369113206,-10.162508583199724,-22.430762188143717,4.730296787975931
1499369113222,-8.819714656290444,-23.7125200274661,0.09155413138023505
1499369113238,-9.796292057679011,-25.665674830243233,-2.532997634851654
1499369113254,-12.603952086671143,-28.839551384756078,-3.6316472114137923
1499369113270,-13.153276874952326,-29.816128786144645,-3.570611123826893
1499369113286,-10.650797283894008,-33.35622186617843,-1.5564202334630863
1499369113302,-9.979400320439481,-45.31929503318838,2.3498893720911838
1499369113318,-9.185931181811156,-59.845883878843324,7.782101167315204
1499369113334,-8.6366063935302,-61.86007476920736,11.383230334935433
1499369113350,-9.369039444571627,-50.62943465323883,8.880750743877343
1499369113366,-10.101472495613052,-39.337758449683406,4.242008087281647
1499369113382,-11.07804989700162,-35.370412756542464,1.9226367589837992
1499369113398,-9.246967269398056,-42.38956282902268,2.8381780727854675
1499369113414,-7.11070420386045,-51.72808422980097,4.364080262455218
1499369113430,-4.730296787975931,-65.70534828717473,7.598992904554734
1499369113446,0.6408789196611906,-74.86076142519255,10.711833371480907
1499369113462,4.42511635004189,-73.21278706034946,10.101472495613052
1499369113479,1.1291676203554744,-68.02471961547258,6.8665598535133086
1499369113495,-4.669260700389032,-64.48462653543902,4.852368963149502
1499369113511,-3.6316472114137923,-64.60669871061259,6.439307240405924
1499369113527,-0.5798428320745188,-69.6726939803159,9.85732814526591
1499369113543,-0.45777065690094787,-71.19859616998542,10.772869459067579
1499369113559,-3.0823224231326094,-66.13260090028234,9.430075532158298
1499369113575,-3.0823224231326094,-58.747234302281186,5.645838101777599
1499369113591,-1.3122758831159445,-50.32425421530479,2.8381780727854675
1499369113607,-1.0681315327688026,-46.35690852216385,4.242008087281647
1499369113623,-1.9226367589837992,-42.87785152971696,7.232776379034021
1499369113639,-4.852368963149502,-27.557793545433697,8.026245517662346
1499369113655,-6.439307240405924,-9.185931181811156,6.8665598535133086
1499369113671,-6.378271152819025,1.5564202334630863,5.889982452124741
1499369113687,-3.875791561760934,3.570611123826893,3.692683299000464
1499369113703,-1.3122758831159445,0.3967345693140487,0.6408789196611906
1499369113719,-3.875791561760934,-11.505302510109004,0.9460593575952316
1499369113735,-9.491111619745197,-17.181658655680167,4.852368963149502
1499369113751,-12.359807736324,-15.228503852903032,9.430075532158298
1499369113767,-12.054627298390187,-3.6316472114137923,10.772869459067579
1499369113783,-13.153276874952326,5.096513313496644,11.261158159761862
1499369113799,-13.397421225299468,3.2654306858930795,8.880750743877343
1499369113815,-9.613183794918768,-12.054627298390187,8.209353780422589
1499369113831,-0.7629510948347615,-38.97154192416269,13.336385137712568
1499369113847,8.148317692835917,-46.17380025940338,12.787060349431613
1499369113863,-5.0354772259097444,-12.176699473563758,9.246967269398056
1499369113879,-16.02197299153113,-7.4158846417944915,4.791332875562603
1499369113895,-17.303730830853738,-5.523765926604028,2.532997634851654
1499369113911,-12.4208438239109,1.4343480582895154,4.058899824521177
1499369113927,-4.547188525215461,8.026245517662346,6.683451590753066
1499369113943,1.6174563210497581,14.92332341496899,8.697642481116873
1499369113959,12.603952086671143,11.07804989700162,12.726024261844714
1499369113975,17.120622568093268,17.730983443961122,18.402380407415876
1499369113991,11.261158159761862,36.77424277103819,15.411612115663274
1499369114007,1.4343480582895154,45.92965590905601,8.6366063935302
1499369114023,-5.828946364538069,45.13618677042791,5.2185854886702145
1499369114039,-4.791332875562603,41.596093690394355,3.1433585107195086
1499369114055,2.105745021744042,25.48256656748299,0.7629510948347615
1499369114071,10.406652933546866,16.998550392919697,-1.1291676203554744
1499369114087,16.08300907911803,32.562752727550105,1.8616006713969
1499369114103,23.285267414358714,55.20714122224763,7.17174029144735
1499369114119,29.20576791027679,68.75715266651423,13.275349050125897
1499369114135,30.30441748683893,94.51438162813793,17.730983443961122
1499369114151,30.975814450293683,112.76417181658644,22.919050888838
1499369114167,26.82536049439227,115.87701228351261,23.83459220263967
1499369114183,15.228503852903032,104.64637216754409,16.08300907911803
1499369114199,1.5564202334630863,86.33554589150845,5.157549401083315
1499369114215,-0.5798428320745188,35.85870145723652,2.9602502479590385
1499369114231,-2.532997634851654,-22.003509575036105,0.03051804379333589
1499369114247,-10.528725108720437,-93.23262378881509,2.04470893415737
1499369114263,-9.613183794918768,-151.09483482108794,0.6408789196611906
1499369114279,-8.697642481116873,-164.70588235294122,-5.279621576256886
1499369114295,-10.955977721828049,-153.7193865873196,-14.129854276340893
1499369114311,-22.73594262607753,-142.18356603341726,-19.501029983978015
1499369114327,-36.835278858625315,-129.54909590295256,-26.58121614404513
1499369114343,-45.07515068284124,-97.07789730678269,-35.06523231860842
1499369114359,-48.49317158770123,-55.69542992294191,-38.60532539864198
1499369114375,-43.9765011062791,-25.60463874265656,-31.89135576409558
1499369114391,-26.337071793697987,-20.538643472953254,-25.909819180590375
1499369114407,-13.153276874952326,-26.276035706111088,-22.67490653849086
1499369114423,-8.941786831464015,-11.322194247348762,-15.960936903944457
1499369114439,-5.096513313496644,17.914091706721592,-8.575570305943302
1499369114455,-1.4343480582895154,37.75082017242676,-8.148317692835917
1499369114471,3.2654306858930795,37.26253147173247,-12.481879911497572
1499369114487,8.880750743877343,12.4208438239109,-14.251926451514464
1499369114503,0.9460593575952316,-1.1902037079423735,-13.58052948805971
1499369114519,-9.002822919050914,2.04470893415737,-7.965209430075447
1499369114535,-15.411612115663274,2.166781109330941,0.3967345693140487
1499369114551,-22.79697871366443,1.6174563210497581,6.683451590753066
1499369114567,-30.4264896620125,8.148317692835917,5.2185854886702145
1499369114583,-27.86297398336751,14.496070801861606,4.058899824521177
1499369114599,-19.623102159151586,18.280308232242305,5.584802014190927
1499369114615,-16.02197299153113,30.670634012359642,5.462729839017356
1499369114631,-18.58548867017612,33.23414969100463,5.157549401083315
1499369114647,-22.73594262607753,30.975814450293683,5.828946364538069
1499369114663,-24.322880903333953,32.31860837720296,4.119935912108076
1499369114679,-18.463416495002548,30.30441748683893,-1.983672846570471
1499369114695,-12.115663385976859,22.73594262607753,-6.622415503166167
1499369114711,-9.491111619745197,17.975127794308264,-11.810482948043045
1499369114727,-8.758678568703772,12.054627298390187,-16.44922560463874
1499369114743,-8.087281605249018,9.308003356984727,-18.524452582589447
1499369114759,-5.828946364538069,6.9886320286868795,-16.815442130159454
1499369114775,0.213626306553806,2.7771419851987957,-10.650797283894008
1499369114791,7.17174029144735,6.378271152819025,-4.42511635004189
1499369114807,4.974441138323073,18.524452582589447,-1.1902037079423735
1499369114823,-1.3733119707026162,27.313649195086555,-1.983672846570471
1499369114840,-1.0070954451819034,27.679865720607268,-5.096513313496644
1499369114856,-0.45777065690094787,19.378957808804444,-6.8665598535133086
1499369114872,0.15259021896690683,14.007782101167322,-7.232776379034021
1499369114888,4.486152437628789,11.993591210803288,-4.180971999694748
1499369114904,11.322194247348762,17.181658655680167,3.0823224231326094
1499369114920,18.280308232242305,23.346303501945386,11.07804989700162
1499369114936,25.970855268177274,21.57625696192872,18.82963302052326
1499369114952,36.65217059586462,22.49179827573039,29.20576791027679
1499369114968,45.68551155870887,35.30937666895534,41.16884107728674
1499369114984,44.52582589456006,47.08934157320505,44.34271763179959
1499369115000,37.506675822079615,62.409399557488086,44.037537193865774
1499369115016,39.032578011749365,56.67200732433048,40.9857328145265
1499369115032,37.2014953841458,53.25398641947049,30.4264896620125
1499369115048,34.2107270923932,68.08575570305948,19.073777370870403
1499369115064,29.816128786144645,96.28442816815459,9.67421988250544
1499369115080,9.002822919050914,127.59594110017542,-2.9602502479590385
1499369115096,-4.60822461280236,98.4206912336922,-6.805523765926637
1499369115112,-0.5798428320745188,24.07873655298681,-7.4158846417944915
1499369115128,2.9602502479590385,2.4719615472647547,-5.0354772259097444
1499369115144,1.983672846570471,-20.660715648126825,10.284580758373295
1499369115160,-3.570611123826893,-38.30014496070817,21.51522087434182
1499369115176,-3.6316472114137923,-61.00556954299236,23.285267414358714
1499369115192,-0.09155413138023505,-79.316395819028,15.411612115663274
1499369115208,2.227817196917613,-85.90829327840083,1.739528496223329
1499369115224,4.42511635004189,-84.19928282597084,-9.124895094224485
1499369115240,3.936827649347606,-67.78057526512544,-13.336385137712568
1499369115256,0.03051804379333589,-43.36614023041125,-13.397421225299468
1499369115272,-4.852368963149502,-21.51522087434182,-11.444266422522333
1499369115288,-8.026245517662346,-6.622415503166167,-7.17174029144735
1499369115304,-9.979400320439481,0.9460593575952316,-2.3498893720911838
1499369115320,-11.749446860456146,1.5564202334630863,0.09155413138023505
1499369115336,-10.711833371480907,-1.8616006713969,0.8850232700083325
1499369115352,-5.401693751430457,-9.85732814526591,1.1291676203554744
1499369115368,-2.288853284504512,-13.092240787365427,-0.213626306553806
1499369115384,-3.6316472114137923,-9.430075532158298,-3.1433585107195086
1499369115400,-6.9886320286868795,-3.0823224231326094,-6.256198977645454
1499369115416,-8.758678568703772,0.8239871824216607,-7.782101167315204
1499369115432,-6.195162890058782,-2.8381780727854675,-6.256198977645454
1499369115448,-3.0212863355459376,-9.491111619745197,-3.570611123826893
1499369115464,-1.0070954451819034,-11.810482948043045,-0.8850232700083325
1499369115480,0.03051804379333589,-10.89494163424115,1.3733119707026162
1499369115496,-0.09155413138023505,-10.833905546654478,1.739528496223329
1499369115512,-0.45777065690094787,-7.843137254901876,1.1902037079423735
1499369115528,-0.5188067444876197,-2.3498893720911838,1.0070954451819034
1499369115544,-0.3967345693140487,1.4343480582895154,0.9460593575952316
1499369115560,-0.33569848172737693,0.33569848172737693,1.4953841458761872
1499369115576,-0.7629510948347615,-1.0681315327688026,1.3733119707026162
1499369115592,-0.6408789196611906,0.5188067444876197,1.9226367589837992
1499369115608,-0.15259021896690683,1.9226367589837992,2.655069810025225
1499369115624,-0.45777065690094787,3.1433585107195086,2.8992141603723667
1499369115640,-0.3967345693140487,3.814755474174035,3.3264667734797513
1499369115656,-0.7019150072480898,4.180971999694748,3.3264667734797513
1499369115672,-0.8239871824216607,3.997863736934505,2.7161058976118966
1499369115688,-0.6408789196611906,2.655069810025225,2.532997634851654
1499369115704,-0.3967345693140487,1.1902037079423735,2.532997634851654
1499369115720,0.5798428320745188,1.739528496223329,2.288853284504512
1499369115736,1.6784924086366573,3.814755474174035,1.8005645838102282
1499369115752,2.04470893415737,5.096513313496644,0.8850232700083325
1499369115768,0.9460593575952316,3.997863736934505,-0.3967345693140487
1499369115784,-1.739528496223329,3.2654306858930795,-1.3122758831159445
1499369115800,-5.096513313496644,6.683451590753066,-2.166781109330941
1499369115816,-10.528725108720437,14.190890363927565,-4.60822461280236
1499369115832,-19.562066071564686,23.468375677118956,-10.467689021133765
1499369115848,-29.38887617303726,34.63797970550081,-18.219272144655406
1499369115864,-34.88212405584818,49.10353246356908,-23.7125200274661
1499369115880,-32.01342793926915,50.38529030289146,-22.186617837796575
1499369115896,-35.79766536964985,43.42717631799792,-22.003509575036105
1499369115912,-39.64293888761745,38.17807278553437,-24.567025253681095
1499369115928,-41.962310215915295,36.591134508277946,-27.252613107499656
1499369115944,-40.98573281452673,41.535057602807456,-24.750133516441565
1499369115960,-36.34699015793103,54.962996871900486,-21.45418478675515
1499369115976,-27.435721370260126,52.277409018081926,-16.44922560463874
1499369115992,-5.95101853971164,17.303730830853738,-8.880750743877343
1499369116008,5.645838101777599,3.1433585107195086,-9.124895094224485
1499369116024,10.406652933546866,-4.730296787975931,-1.1291676203554744
1499369116040,12.4208438239109,-18.097199969481835,8.392462043183059
1499369116056,17.79201953154802,-40.80262455176626,18.89066910811016
1499369116072,19.439993896391115,-57.22133211261166,20.416571297779683
1499369116088,15.899900816357558,-64.66773479819949,12.787060349431613
1499369116104,13.64156557564661,-69.79476615548947,5.0354772259097444
1499369116120,13.702601663233281,-63.752193484397594,0.5188067444876197
1499369116136,15.716792553597315,-50.01907377737098,0.213626306553806
1499369116152,16.815442130159454,-38.30014496070817,2.166781109330941
1499369116168,15.594720378423744,-30.4875257495994,3.570611123826893
1499369116184,12.4208438239109,-21.820401312275862,2.5940337224383256
1499369116200,8.148317692835917,-13.58052948805971,-0.33569848172737693
1499369116216,8.941786831464015,-7.904173342488775,-1.6784924086366573
1499369116232,12.4208438239109,-5.889982452124741,-1.739528496223329
1499369116249,15.716792553597315,-8.51453421835663,-2.288853284504512
1499369116265,17.059586480506596,-10.955977721828049,-2.655069810025225
1499369116281,19.317921721217544,-10.040436408026153,-1.6784924086366573
1499369116297,22.186617837796575,-3.997863736934505,3.3264667734797513
1499369116313,24.567025253681095,5.584802014190927,9.55214770733187
1499369116329,28.656443121995835,18.524452582589447,14.80125123979542
1499369116345,32.440680552376534,33.905546654459386,19.317921721217544
1499369116361,33.905546654459386,54.535744258792874,23.285267414358714
1499369116377,32.19653620202939,71.01548790722518,28.412298771648693
1499369116393,39.09361409933604,65.40016784924092,37.93392843518723
1499369116409,57.95376516365286,58.442053864347145,47.15037766079172
1499369116425,76.08148317692849,71.62584878309326,46.47898069733719
1499369116441,91.5236133363851,91.46257724879842,44.037537193865774
1499369116457,103.12046997787456,102.20492866407267,44.83100633249387
1499369116473,106.78263523308169,102.20492866407267,49.10353246356908
1499369116489,85.66414892805369,107.57610437170979,46.35690852216362
1499369116505,61.86007476920713,90.730144197757,45.624475471122196
1499369116521,57.09925993743764,70.16098268101041,42.08438239108864
1499369116537,50.507362478064806,62.47043564507476,31.342030975814396
1499369116553,39.032578011749365,79.01121538109419,18.402380407415876
1499369116569,28.412298771648693,91.27946898603795,13.275349050125897
1499369116585,22.125581750209676,89.20424200808748,7.904173342488775
1499369116601,15.594720378423744,81.08644235904512,3.6316472114137923
1499369116617,12.359807736324,58.625162127107615,2.655069810025225
1499369116633,13.64156557564661,32.80689707789725,0.3967345693140487
1499369116649,11.871519035629717,18.158236057068734,-1.983672846570471
1499369116665,6.927595941100208,17.79201953154802,-6.439307240405924
1499369116681,0.5188067444876197,23.407339589532285,-11.261158159761862
1499369116697,-3.6316472114137923,28.229190508888223,-11.566338597695903
1499369116713,-6.073090714885211,26.214999618524416,-8.026245517662346
1499369116729,-6.073090714885211,19.80621042191183,-4.180971999694748
1499369116745,-4.9134050507361735,15.228503852903032,-2.04470893415737
1499369116761,-4.364080262455218,13.64156557564661,-1.1291676203554744
1499369116777,-3.0212863355459376,15.045395590142562,-0.6408789196611906
1499369116793,0.6408789196611906,18.76859693293659,-0.7629510948347615
1499369116809,3.6316472114137923,19.80621042191183,-2.105745021744042
1499369116825,6.622415503166167,15.960936903944457,-2.8381780727854675
1499369116841,10.711833371480907,7.660028992141633,-1.9226367589837992
1499369116857,15.533684290836845,5.279621576256886,-1.6784924086366573
