Timestamp (ms),Accel X (g),Accel Y (g),Accel Z (g)
1499369110808,0.7531242847333486,0.39081406881818914,0.5077592126344701
1499369110824,0.7653315022507057,0.39069199664301557,0.5077592126344701
1499369110840,0.7609369039444571,0.3855649652857256,0.5132524605172808
1499369110856,0.7526359960326543,0.3864194705119406,0.5045853360799573
1499369110872,0.7514152742809186,0.38190280003051846,0.495551995117113
1499369110888,0.7897459372854199,0.39203479056992485,0.4607614251926453
1499369110904,0.7879148546578163,0.4093690394445719,0.4313420309758147
1499369110920,0.7582513160906386,0.3950865949492641,0.4213321126115819
1499369110936,0.804516670481422,0.3356374456397342,0.4796826123445488
1499369110952,0.8155031662470433,0.3153734645609214,0.48859388113221947
1499369110968,0.8095216296635384,0.3309987029831385,0.459418631265736
1499369110984,0.8223392080567633,0.347356374456397,0.46588845654993527
1499369111000,0.8057373922331577,0.348210879682612,0.49420920119020373
1499369111016,0.7383535515373465,0.32916762035553493,0.5276569771877622
1499369111032,0.7204089417868316,0.2947432669565879,0.5608606088349735
1499369111048,0.6745098039215689,0.2981612878614479,0.6098115510795754
1499369111064,0.6151827267872125,0.2936446173800258,0.7221179522392616
1499369111080,0.5270466163118943,0.2977950713359272,0.7769283588921949
1499369111096,0.48993667505912875,0.35016403448538913,0.8111085679407948
1499369111112,0.48017090104524307,0.38532082093537845,0.819287403677424
1499369111128,0.41254291599908477,0.37189288166628476,0.8419928282597082
1499369111144,0.4796826123445488,0.31683833066300426,0.8428473334859232
1499369111160,0.5053177691309987,0.29169146257724865,0.8458991378652625
1499369111176,0.5530479896238649,0.2833905546654458,0.831250476844434
1499369111192,0.6331273365377283,0.32660410467688994,0.8054932478828105
1499369111208,0.6818341344319832,0.3646906233310441,0.7611810482948043
1499369111224,0.6874494544899674,0.3489433127336534,0.7266346227206837
1499369111240,0.6876935988403146,0.3075608453498129,0.685862516212711
1499369111256,0.6968490119783324,0.2964522774090179,0.6701152056153203
1499369111272,0.6637674525062947,0.32440680552376566,0.6271457999542234
1499369111288,0.6575417715724425,0.3649347676813912,0.5569542992294192
1499369111304,0.7095445181963838,0.3917906462195777,0.5043411917296101
1499369111320,0.7627679865720607,0.37567711909666635,0.46564431219958813
1499369111336,0.7841306172274356,0.33966582742046203,0.47394522011139095
1499369111352,0.8092774853131912,0.30218966964217575,0.498115510795758
1499369111368,0.7776607919432363,0.3368581673914699,0.4917677576867323
1499369111384,0.7749752040894178,0.3556572823681998,0.48065918974593735
1499369111400,0.7578850995651178,0.3814145113298242,0.5191119249256122
1499369111416,0.7401846341649501,0.37396810864423546,0.5401083390554664
1499369111432,0.7144274052033266,0.3451590753032727,0.5751430533302813
1499369111448,0.6967269398031588,0.3705500877393755,0.610788128480964
1499369111464,0.6880598153658353,0.39667353322652055,0.6054169527733269
1499369111480,0.6819562066071567,0.3919127183947513,0.6228732738231475
1499369111496,0.6825665674830246,0.38568703746089916,0.6205539024948497
1499369111512,0.6984359502555888,0.3767757686732285,0.6023651483939876
1499369111528,0.7030746929121845,0.3642023346303498,0.5925993743801019
1499369111544,0.709178301670863,0.35675593194476196,0.5781948577096205
1499369111560,0.7147936217288473,0.3602960250247955,0.566964217593652
1499369111576,0.7103990234225988,0.36652170595864764,0.5707484550240327
1499369111592,0.7274891279468987,0.36017395284962195,0.5702601663233384
1499369111608,0.7432364385442893,0.3695735103379869,0.5668421454184784
1499369111624,0.7311512932021058,0.36688792248416835,0.566109712367437
1499369111640,0.7261463340199894,0.35590142671854696,0.5645227740901806
1499369111656,0.7407949950408179,0.35504692149233197,0.5634241245136185
1499369111672,0.742748149843595,0.35724422064545625,0.561837186236362
1499369111688,0.7316395819028001,0.3510185397116041,0.557564660105287
1499369111704,0.6941634241245138,0.3688410772869455,0.572091248950942
1499369111720,0.7102769512474252,0.36566720073243264,0.5786831464103148
1499369111736,0.7346913862821394,0.36432440680552336,0.576363775082017
1499369111752,0.7432364385442893,0.3602960250247955,0.5761196307316698
1499369111768,0.7543450064850843,0.3602960250247955,0.5673304341191727
1499369111784,0.7511711299305714,0.3566338597695884,0.5697718776226441
1499369111800,0.7261463340199894,0.34332799267566916,0.5751430533302813
1499369111816,0.7244373235675594,0.35004196231021556,0.567818722819867
1499369111832,0.716014343480583,0.3556572823681998,0.569527733272297
1499369111848,0.7180895704585337,0.3621271076523991,0.5769741359578848
1499369111864,0.7395742732890822,0.3583428702220184,0.572945754177157
1499369111880,0.7434805828946365,0.35504692149233197,0.5716029602502477
1499369111896,0.7406729228656443,0.34833295185778557,0.5691615167467763
1499369111912,0.7357900358587015,0.3385671778438999,0.5673304341191727
1499369111928,0.7255359731441215,0.3418631265735863,0.5595178149080642
1499369111944,0.7216296635385673,0.35846494239719195,0.5636682688639656
1499369111960,0.7195544365606166,0.3709163042648962,0.563546196688792
1499369111976,0.7206530861371787,0.3571221484702827,0.5768520637827113
1499369111992,0.7404287785152972,0.3548027771419848,0.5725795376516363
1499369112008,0.7278553444724194,0.35590142671854696,0.5925993743801019
1499369112024,0.7167467765316244,0.3494316014343477,0.5939421683070112
1499369112040,0.7426260776684215,0.3571221484702827,0.592843518730449
1499369112056,0.7659418631265735,0.35797665369649767,0.5623254749370563
1499369112072,0.7700923170824749,0.3611505302510105,0.5476768139162278
1499369112088,0.7577630273899443,0.3527275501640341,0.5460898756389714
1499369112104,0.7549553673609521,0.3410086213473713,0.5528038452735178
1499369112120,0.7528801403830014,0.32489509422445995,0.5425497825589378
1499369112136,0.7390859845883879,0.3342946517128249,0.5338826581216143
1499369112152,0.7063706416418709,0.34161898222323916,0.5482871747920957
1499369112168,0.7167467765316244,0.3411306935225449,0.5667200732433049
1499369112184,0.7345693141069658,0.35126268406195127,0.5944304570077055
1499369112200,0.7356679636835279,0.3506523231860834,0.6127412832837411
1499369112216,0.7234607461661708,0.33881132219424703,0.6162813763637747
1499369112232,0.7047837033646145,0.3440604257267106,0.6109102006561375
1499369112248,0.7103990234225988,0.3466239414053556,0.605661097123674
1499369112264,0.6957503624017702,0.35468070496681126,0.6074921797512776
1499369112280,0.6653543907835511,0.33246356908522134,0.6096894789044018
1499369112296,0.6612039368276497,0.3247730220492864,0.6033417257953761
1499369112312,0.6919661249713895,0.3527275501640341,0.6132295719844354
1499369112328,0.6883039597161824,0.34930952925917413,0.6298313878080419
1499369112344,0.6770733196002139,0.34747844663157057,0.6179903868162047
1499369112360,0.6964827954528117,0.33783474479285847,0.6089570458533604
1499369112376,0.7154039826047152,0.3368581673914699,0.6035858701457233
1499369112392,0.714305333028153,0.3397878995956356,0.6019989318684669
1499369112408,0.7389639124132144,0.3616388189517048,0.6011444266422519
1499369112424,0.7171129930571452,0.3535820553902491,0.5939421683070112
1499369112440,0.688426031891356,0.349065384908827,0.6029755092698554
1499369112456,0.6836652170595867,0.3466239414053556,0.6096894789044018
1499369112472,0.6968490119783324,0.34918745708400056,0.6161593041886011
1499369112488,0.7147936217288473,0.3583428702220184,0.609933623254749
1499369112504,0.7102769512474252,0.35175097276264555,0.6044403753719383
1499369112520,0.6953841458762495,0.35638971541924125,0.6062714579995419
1499369112536,0.6819562066071567,0.34760051880674414,0.607370107576104
1499369112552,0.6743877317463953,0.3288014038300142,0.610788128480964
1499369112568,0.6872053101396203,0.3440604257267106,0.6265354390783555
1499369112584,0.6702372777904939,0.342229343099107,0.6253147173266198
1499369112600,0.6607156481269554,0.3372243839169906,0.6435034714274819
1499369112616,0.6724345769436182,0.35260547798886055,0.6710917830167089
1499369112632,0.6538796063172354,0.38361181048294846,0.686717021438926
1499369112648,0.6659647516594189,0.4019226367589841,0.6868390936140996
1499369112664,0.686717021438926,0.3696955825131605,0.6469214923323419
1499369112680,0.6880598153658353,0.3305104142824442,0.6118867780575261
1499369112696,0.7208972304875259,0.32574959945067494,0.636057068741894
1499369112712,0.7531242847333486,0.349065384908827,0.6813458457312889
1499369112727,0.7349355306324865,0.34369420920118987,0.6686503395132375
1499369112743,0.7464103150988022,0.31354238193331785,0.6187228198672461
1499369112759,0.795117112993057,0.29669642175936506,0.5684290836957349
1499369112775,0.8266117341878383,0.2804608224612801,0.48993667505912875
1499369112791,0.8212405584802012,0.28326848249027226,0.4396429388876175
1499369112807,0.828686961165789,0.27618829633020514,0.43732356755931967
1499369112823,0.8600595101853967,0.2609292744335088,0.43610284580758396
1499369112839,0.8925307087815675,0.2621499961852445,0.3842221713588163
1499369112855,0.9281757839322502,0.26556801709010447,0.3338063630121306
1499369112871,0.9098649576562146,0.27985046158541227,0.2936446173800258
1499369112887,0.9121843289845124,0.2969405661097122,0.27325856412603944
1499369112903,0.8814221408407725,0.3003585870145722,0.24982070649271382
1499369112919,0.8587167162584874,0.3115892271305407,0.22149996185244536
1499369112935,0.8095216296635384,0.3305104142824442,0.21576256961928753
1499369112951,0.8151369497215226,0.345647364003967,0.21478599221789896
1499369112967,0.8837415121690704,0.33990997177080917,0.20758373388265827
1499369112983,0.8930189974822618,0.305241474021515,0.18365758754863837
1499369112999,0.8803234912642104,0.28754100862134724,0.15094224460212136
1499369113015,0.871656366826886,0.29962615396353076,0.13751430533302855
1499369113031,0.9064469367513546,0.3222095063706414,0.12152285038528987
1499369113047,0.9473411154345008,0.3401541161211563,0.1293354695963993
1499369113063,0.9353780422674909,0.3241626611734185,0.12396429388876129
1499369113079,0.9168230716411081,0.29584191653315006,0.10650797283894065
1499369113095,0.9293965056839859,0.25262836652170595,0.08490119783321859
1499369113111,0.9350118257419702,0.1986724650949876,0.08111696040283789
1499369113127,0.9671168078126193,0.17120622568093413,0.055848020141908705
1499369113143,1.014724956130312,0.1558251316090642,0.02386511024643312
1499369113159,0.9932402532997635,0.17242694743266984,0.04742504005493231
1499369113175,1.0009308003356985,0.19757381551842546,0.10138094148165067
1499369113191,0.9599145494773786,0.1998931868467233,0.17657740138857125
1499369113207,0.9953154802777142,0.2171053635461968,0.1742580300602734
1499369113223,1.0578164339665825,0.2310215915159839,0.13934538796063212
1499369113239,0.9912870984969864,0.2246738384069582,0.20392156862745114
1499369113255,0.9297627222095066,0.24469367513542384,0.29803921568627434
1499369113271,0.9672388799877929,0.2888838025482565,0.3124437323567557
1499369113287,0.909742885481041,0.25677882047760736,0.3308766308079649
1499369113303,0.8179446097505148,0.22333104448004892,0.37946135652704704
1499369113319,0.8959487296864275,0.24713511863889526,0.3792172121766999
1499369113335,0.9711451895933472,0.2561684596017395,0.3699397268635076
1499369113351,0.936476691844053,0.2465247577630274,0.38275730525673346
1499369113367,0.8758068207827883,0.25970855268177306,0.4002136263065541
1499369113383,0.8589608606088346,0.23639276722362101,0.4091248950942248
1499369113399,0.8620126649881739,0.25812161440451664,0.39703974975204126
1499369113415,0.826977950713359,0.269108110170138,0.41559472037842404
1499369113431,0.8189211871519033,0.2938887617303729,0.4389105058365761
1499369113447,0.8339360646982525,0.2990157930876629,0.45087357900358604
1499369113463,0.813305867093919,0.28461127641718154,0.4614938582436867
1499369113479,0.791699092088197,0.2667887388418402,0.46186007476920743
1499369113495,0.8076905470359348,0.27154955367360945,0.47821774624246594
1499369113511,0.8279545281147476,0.2864423590447851,0.4889600976577402
1499369113527,0.8092774853131912,0.29413290608072007,0.5091020065613794
1499369113543,0.7768062867170213,0.2974288548104065,0.5269245441367207
1499369113559,0.7794918745708399,0.2991378652628365,0.5330281528953993
1499369113575,0.7595941100175478,0.3003585870145722,0.5539024948500799
1499369113591,0.7113756008239873,0.27997253376058584,0.5281452658884564
1499369113607,0.7892576485847256,0.2850995651178758,0.5469443808651864
1499369113623,0.8062256809338519,0.2927901121538108,0.5585412375066756
1499369113639,0.7659418631265735,0.2931563286793315,0.5845426108186462
1499369113655,0.784863050278477,0.2848554207675287,0.5812466620889598
1499369113671,0.8208743419546805,0.2919356069275958,0.5694056610971234
1499369113687,0.8419928282597082,0.2800946059357594,0.5569542992294192
1499369113703,0.8488288700694282,0.28448920424200796,0.5573205157549399
1499369113719,0.8306401159685661,0.3062180514229036,0.5663538567177842
1499369113735,0.7558098725871671,0.30975814450293715,0.572091248950942
1499369113751,0.6995345998321509,0.3229419394216828,0.5879606317235062
1499369113767,0.6659647516594189,0.34296177615014845,0.5968719005111769
1499369113783,0.676462958724346,0.3688410772869455,0.5879606317235062
1499369113799,0.7130846112764173,0.38495460440985774,0.5633020523384449
1499369113815,0.716014343480583,0.38495460440985774,0.5149614709697108
1499369113831,0.7414053559166858,0.3544365606164641,0.5281452658884564
1499369113847,0.7484855420767529,0.33209735255970063,0.5346150911726557
1499369113863,0.644602121004044,0.3115892271305407,0.5403524834058135
1499369113879,0.6629129472800797,0.3633478294041348,0.5730678263523306
1499369113895,0.6696269169146261,0.4031433585107198,0.6066376745250626
1499369113911,0.682444495307851,0.42096589608606116,0.6270237277790498
1499369113927,0.6903791866941331,0.41181048294804334,0.6288548104066534
1499369113943,0.6902571145189595,0.3972838941023884,0.6111543450064847
1499369113959,0.6996566720073245,0.3881284809643706,0.5819790951400012
1499369113975,0.7047837033646145,0.3537041275654227,0.5458457312886242
1499369113991,0.7199206530861373,0.352483405813687,0.5294880598153657
1499369114007,0.7028305485618374,0.3571221484702827,0.5418173495078964
1499369114023,0.6753643091477839,0.35883115892271267,0.5836881055924312
1499369114039,0.6717021438925768,0.3637140459296555,0.5935759517814905
1499369114055,0.6791485465781646,0.3609063859006634,0.6217746242465854
1499369114071,0.7001449607080188,0.3976501106279091,0.6373998626688033
1499369114087,0.7241931792172123,0.3969176775768677,0.6345922026398112
1499369114103,0.7141832608529795,0.3787289234760056,0.6262912947280084
1499369114119,0.726268406195163,0.37982757305256776,0.6009002822919047
1499369114135,0.7354238193331808,0.37238117036697904,0.577218280308232
1499369114151,0.7468986037994965,0.3621271076523991,0.5576867322804606
1499369114167,0.7299305714503701,0.3661554894331269,0.5454795147631035
1499369114183,0.7023422598611431,0.38117036697947704,0.5499961852445256
1499369114199,0.7179674982833602,0.37604333562218706,0.5244831006332493
1499369114215,0.7528801403830014,0.38153658350499775,0.5106889448386358
1499369114231,0.7533684290836957,0.38617532616159345,0.5293659876401922
1499369114247,0.7974364843213548,0.40082398718242196,0.5143511100938429
1499369114263,0.8706797894254974,0.3898374914168006,0.5221637293049515
1499369114279,0.8347905699244675,0.3590753032730598,0.5653772793163956
1499369114295,0.7965819790951398,0.34369420920118987,0.6088349736781868
1499369114311,0.8550545510032803,0.3428397039749749,0.5863736934462498
1499369114327,0.8063477531090255,0.2880292973220415,0.6247043564507511
1499369114343,0.681589990081636,0.2695963988708323,0.6254367895017934
1499369114359,0.45880827038986816,0.2621499961852445,0.5874723430228119
1499369114375,0.37616540779736063,0.23614862287327387,0.7251697566186008
1499369114391,0.21844815747310609,0.28168154421301583,0.8104982070649269
1499369114407,-0.06121919584954583,0.3372243839169906,0.955275806820783
1499369114423,-0.07879758907454049,0.35602349889372054,1.042313267719539
1499369114439,0.09332417792019498,0.3843442435339899,0.9981231403067063
1499369114455,0.1381246662088964,0.3502861066605627,0.9505149919890137
1499369114471,0.16144045166704846,0.36066224155031623,0.9062027924010074
1499369114487,0.12079041733424845,0.34332799267566916,0.9047379262989246
1499369114503,0.14435034714274853,0.35504692149233197,0.9170672159914552
1499369114519,0.1806057831692991,0.36896314946211906,0.9195086594949267
1499369114535,0.16241702906843702,0.387151903562982,0.9173113603418024
1499369114551,0.09600976577401354,0.39826047150377697,0.9185320820935381
1499369114567,0.057068741893644415,0.39826047150377697,0.9234149691004809
1499369114583,0.09246967269397999,0.4057068741893648,0.8914320592050053
1499369114599,0.08294804303044145,0.3418631265735863,0.8548104066529332
1499369114615,0.20233463035019472,0.3716487373159376,0.9988555733577478
1499369114631,-0.12921339742122528,0.4455024032959489,0.804516670481422
1499369114647,-0.17181658655680154,0.49750514991989014,0.8740978103303574
1499369114663,-0.17438010223544653,0.47565423056382095,0.8747081712062252
1499369114679,-0.09015030136568258,0.45502403295948746,0.9252460517280845
1499369114695,-0.01886015106431671,0.4359807736324104,0.9302510109102009
1499369114711,-0.0023804074158846333,0.42023346303501974,0.9237811856260016
1499369114727,-0.019470511940184565,0.4204776073853669,0.9005874723430232
1499369114743,-0.0014038300144960658,0.4107118333714812,0.8893568322270546
1499369114759,-0.030945296406500233,0.4061951628900591,0.9055924315251396
1499369114775,-0.05865568017090084,0.40167849240863696,0.9236591134508281
1499369114791,-0.09491111619745185,0.42145418478675545,0.9263447013046466
1499369114807,-0.14996566720073234,0.4464789806973375,0.9074235141527431
1499369114823,-0.20599679560540185,0.4754100862134738,0.8976577401388575
1499369114839,-0.1948882276646069,0.4829785610742352,0.8947280079346918
1499369114855,-0.20306706340123615,0.4745555809872588,0.8975356679636839
1499369114871,-0.19354543373769761,0.45123979552910676,0.8941176470588239
1499369114887,-0.1808499275196458,0.4552681773098346,0.8893568322270546
1499369114903,-0.16253910124361015,0.4523384451056689,0.878736552986954
1499369114919,-0.14984359502555877,0.44293888761730393,0.8771496147096975
1499369114935,-0.15570305943389018,0.43353933012893897,0.8859388113221947
1499369114951,-0.17462424658579367,0.44916456855115605,0.8946059357595182
1499369114967,-0.17047379262989226,0.46430151827267885,0.8894789044022282
1499369114983,-0.17047379262989226,0.464545662623026,0.8749523155565724
1499369114999,-0.18158236057068722,0.4652780956740674,0.8737315938048367
1499369115015,-0.17462424658579367,0.46723125047684455,0.8709239337758445
1499369115031,-0.15484855420767518,0.46601052872510884,0.857984283207446
1499369115047,-0.14447241931792165,0.4612497138933396,0.8565194171053632
1499369115063,-0.1366598001068131,0.45416952773327246,0.8523689631494618
1499369115079,-0.1240863660639353,0.4452582589456018,0.8592050049591817
1499369115095,-0.060975051499198685,0.4502632181277182,0.8488288700694282
1499369115111,-0.11224536507209892,0.425848783093004,0.8589608606088346
1499369115127,-0.19220263981078833,0.42987716487373184,0.9138933394369424
1499369115143,-0.1779201953154801,0.46637674525062955,0.945021744106203
1499369115159,-0.15240711070420376,0.463691157396811,0.9269550621805145
1499369115175,-0.13617151140611883,0.45087357900358604,0.9120622568093388
1499369115191,-0.12506294346532387,0.44281681544213036,0.8861829556725418
1499369115207,-0.13104448004882885,0.44379339284351893,0.8688487067978938
1499369115223,-0.14398413061722737,0.4402532997634854,0.8697032120241088
1499369115239,-0.14740215152208735,0.4452582589456018,0.8750743877317468
1499369115255,-0.1547264820325016,0.45929655909056244,0.8642099641412981
1499369115271,-0.16510261692225514,0.4633249408712903,0.8567635614557103
1499369115287,-0.1770656900892651,0.4632028686961167,0.8565194171053632
1499369115303,-0.17047379262989226,0.4539253833829253,0.8610360875867853
1499369115319,-0.1686427100022887,0.4434271763179982,0.8659189745937281
1499369115335,-0.16205081254291587,0.44367132066834536,0.8767833981841768
1499369115351,-0.1552147707331959,0.44489204242008107,0.8864271000228889
1499369115367,-0.1476462958724345,0.44489204242008107,0.8930189974822618
1499369115383,-0.14544899671931022,0.4459906919966432,0.896925307087816
1499369115399,-0.1514305333028152,0.44110780498970037,0.8903334096284432
1499369115415,-0.15741206988632017,0.4423285267414361,0.8939955748836503
1499369115431,-0.15509269855802232,0.44489204242008107,0.9032730601968417
1499369115447,-0.14605935759517807,0.43952086671244395,0.8997329671168082
1499369115463,-0.14459449149309522,0.42731364919508685,0.9038834210727096
1499369115479,-0.13434042877851526,0.42096589608606116,0.897779812314031
1499369115495,-0.13446250095368883,0.4245059891660947,0.8991226062409403
1499369115511,-0.13763637750820168,0.43353933012893897,0.8991226062409403
1499369115527,-0.1585107194628823,0.4434271763179982,0.8924086366063939
1499369115543,-0.1585107194628823,0.4442816815442132,0.8841077286945911
1499369115559,-0.1607080186160066,0.43866636148622895,0.8794689860379954
1499369115575,-0.14911116197451735,0.44196231021591537,0.877882047760739
1499369115591,-0.15399404898146019,0.44159609369039465,0.8794689860379954
1499369115607,-0.15374990463111304,0.4431830319676511,0.8844739452201118
1499369115623,-0.15594720378423732,0.4426947432669568,0.8856946669718475
1499369115639,-0.1564354924849316,0.4364690623331047,0.8831311512932025
1499369115655,-0.15631342030975803,0.43488212405584825,0.8842298008697647
1499369115671,-0.15118638895246805,0.43659113450827824,0.8885023270008396
1499369115687,-0.15423819333180733,0.4401312275883118,0.896070801861601
1499369115703,-0.1459372854200045,0.4347600518806747,0.8931410696574353
1499369115719,-0.1514305333028152,0.43280689707789755,0.8942397192339975
1499369115735,-0.14959945067521163,0.4334172579537654,0.8932631418326089
1499369115751,-0.15411612115663376,0.43830014496070824,0.8871595330739304
1499369115767,-0.15289539940489805,0.4363469901579311,0.8860608834973682
1499369115783,-0.14581521324483093,0.4308537422751204,0.894361791409171
1499369115799,-0.1404440375371938,0.429266803997864,0.9004654001678496
1499369115815,-0.11590753032730605,0.4313420309758147,0.8841077286945911
1499369115831,-0.10382238498512253,0.4229190508888383,0.8607919432364382
1499369115847,-0.10443274586099038,0.4119325551232169,0.8739757381551838
1499369115863,-0.09381246662088971,0.4141298542763412,0.8900892652780961
1499369115879,-0.10589761196307323,0.42694743266956614,0.9015640497444117
1499369115895,-0.15252918287937733,0.42145418478675545,0.9092545967803467
1499369115911,-0.20440985732814543,0.42401770046540044,0.9081559472037846
1499369115927,-0.23285267414358746,0.4270695048447397,0.9064469367513546
1499369115943,-0.22333104448004892,0.4351262684061954,0.8998550392919817
1499369115959,-0.22223239490348679,0.43024338139925256,0.8878919661249718
1499369115975,-0.2582436865796902,0.42853437094682256,0.8843518730449382
1499369115991,-0.275944151979858,0.43610284580758396,0.870801861600671
1499369116007,-0.2944991226062408,0.4396429388876175,0.8681162737468524
1499369116023,-0.2737468528267337,0.4242618448157476,0.8712901503013653
1499369116039,-0.24725719081406883,0.4169375143053333,0.8910658426794846
1499369116055,-0.2322423132677196,0.431830319676509,0.8942397192339975
1499369116071,-0.22687113756008248,0.44757763027389963,0.8789806973373011
1499369116087,-0.21368734264133682,0.4431830319676511,0.8731212329289688
1499369116103,-0.18951705195696977,0.42267490653849116,0.8777599755855654
1499369116119,-0.17669947356374438,0.41681544213015975,0.8806897077897311
1499369116135,-0.1820706492713815,0.42352941176470615,0.8792248416876483
1499369116151,-0.19513237201495404,0.4313420309758147,0.8816662851911197
1499369116167,-0.1940337224383919,0.43109788662546755,0.8839856565194175
1499369116183,-0.1998931868467233,0.43402761882963325,0.8883802548256661
1499369116199,-0.20294499122606258,0.43329518577859183,0.8891126878767075
1499369116215,-0.1973296711680783,0.4234073395895326,0.8872816052491039
1499369116231,-0.19977111467154973,0.4166933699549862,0.8953383688105596
1499369116247,-0.19122606240939977,0.4263370717936983,0.9026626993209739
1499369116263,-0.18146028839551365,0.42267490653849116,0.9224383916990924
1499369116279,-0.19330128938735047,0.4259708552681776,0.9265888456549938
1499369116295,-0.19354543373769761,0.43488212405584825,0.9291523613336388
1499369116311,-0.18536659800106792,0.44879835202563534,0.9204852368963152
1499369116327,-0.18182650492103436,0.4540474555580989,0.9031509880216682
1499369116343,-0.18133821622034008,0.4702830548561838,0.8748302433813988
1499369116359,-0.17181658655680154,0.4893263141832609,0.8593270771343553
1499369116375,-0.16998550392919798,0.4976272220950637,0.8627450980392153
1499369116391,-0.19391165026321833,0.5064164187075608,0.8524910353246353
1499369116407,-0.18231479362172864,0.49286640726329445,0.8375982299534597
1499369116423,-0.19208056763561476,0.4959182116426337,0.8206301976043333
1499369116439,-0.20465400167849257,0.5243610284580758,0.8091554131380176
1499369116455,-0.20502021820401328,0.5434042877851528,0.7896238651102463
1499369116471,-0.18426794842450578,0.5456015869382771,0.7643549248493171
1499369116487,-0.17926298924238937,0.5449912260624092,0.7467765316243229
1499369116503,-0.22650492103456177,0.5784390020599677,0.7600823987182421
1499369116519,-0.19830624856946688,0.5536583504997328,0.7890135042343784
1499369116535,-0.16717784390020585,0.5258258945601586,0.8229495689326312
1499369116551,-0.1266498817425803,0.5182574196993972,0.8377203021286332
1499369116567,-0.09442282749675757,0.5365682459754328,0.8347905699244675
1499369116583,-0.08477912565804546,0.523994811932555,0.8104982070649269
1499369116599,-0.08429083695735118,0.49030289158464946,0.8195315480277712
1499369116615,-0.11261158159761964,0.48773937590600447,0.851148241397726
1499369116631,-0.12079041733424889,0.5018997482261387,0.8845960173952854
1499369116647,-0.13177691309987027,0.5126420996414129,0.8866712443732361
1499369116663,-0.13360799572747384,0.5165484092469672,0.8865491721980625
1499369116679,-0.1354390783550774,0.5176470588235293,0.8743419546807045
1499369116695,-0.13934538796063167,0.5125200274662394,0.8584725719081403
1499369116711,-0.15448233768215447,0.5051956969558251,0.8451667048142211
1499369116727,-0.15948729686427088,0.504097047379263,0.8417486839093611
1499369116743,-0.14911116197451735,0.5114213778896772,0.8460212100404361
1499369116759,-0.1430075532158388,0.5050736247806515,0.8440680552376589
1499369116775,-0.1514305333028152,0.5069047074082551,0.8394293125810632
1499369116791,-0.15033188372625306,0.5102006561379415,0.8390630960555425
1499369116807,-0.14703593499656664,0.5138628213931486,0.8404058899824518
1499369116823,-0.15167467765316234,0.5076371404592965,0.8364995803768975
1499369116839,-0.16156252384222158,0.502388036926833,0.8440680552376589
1499369116855,-0.15204089417868305,0.5018997482261387,0.849439230945296
1499369116871,-0.15875486381322945,0.5064164187075608,0.8501716639963375
1499369116887,-0.15863279163805588,0.504097047379263,0.8452887769893946
1499369116903,-0.164003967345693,0.5011673151750973,0.8477302204928661
1499369116919,-0.1724269474326694,0.498115510795758,0.8469977874418246
1499369116935,-0.16217288471808944,0.496406500343328,0.8611581597619589
1499369116951,-0.14959945067521163,0.4881055924315252,0.8697032120241088
1499369116967,-0.1480125123979552,0.4796826123445488,0.8745860990310517
1499369116983,-0.14520485236896308,0.4807812619211109,0.8854505226215004
1499369116999,-0.1455710688944838,0.4779736018921188,0.8906996261539639
1499369117015,-0.13897917143511096,0.4738231479362174,0.8902113374532696
1499369117031,-0.12860303654535743,0.4729686427100024,0.8877698939497982
1499369117047,-0.1290913252460517,0.4774853131914245,0.8848401617456325
1499369117063,-0.13311970702677955,0.4769970244907302,0.8709239337758445
1499369117079,-0.13678187228198668,0.47602044708934166,0.8632333867399096
1499369117095,-0.13702601663233382,0.4791943236438545,0.8572518501564046
1499369117111,-0.1502098115510795,0.48773937590600447,0.859693293659876
1499369117127,-0.16156252384222158,0.48822766460669875,0.8616464484626531
1499369117143,-0.16119630731670087,0.48578622110322733,0.8616464484626531
1499369117159,-0.1505760280766002,0.4791943236438545,0.8574959945067517
1499369117175,-0.13788052185854882,0.47943846799420164,0.8561532005798425
1499369117191,-0.12591744869153887,0.4778515297169452,0.8441901274128325
1499369117207,-0.15277332722972448,0.47895017929350736,0.8476081483176925
1499369117223,-0.16302738994430443,0.4888380254825666,0.8640878919661246
1499369117239,-0.16546883344777585,0.4909132524605173,0.8739757381551838
1499369117255,-0.16180666819256873,0.49164568551155874,0.8810559243152518
1499369117271,-0.14776836804760807,0.48102540627145807,0.8889906157015339
1499369117287,-0.12603952086671244,0.46857404440375383,0.8892347600518811
1499369117303,-0.11883726253147175,0.4623483634699017,0.8865491721980625
1499369117319,-0.13324177920195313,0.4691844052796217,0.883863584344244
1499369117335,-0.14410620279240094,0.48029297322041664,0.8637216754406039
1499369117351,-0.15655756466010518,0.48957045853360803,0.8499275196459903
1499369117367,-0.15497062638284875,0.48908216983291375,0.8402838178072782
1499369117383,-0.14874494544899663,0.47821774624246594,0.8437018387121382
1499369117399,-0.1430075532158388,0.4664988174258031,0.856275272755016
1499369117415,-0.13385214007782098,0.4578316929884796,0.8695811398489353
1499369117431,-0.12762645914396886,0.4627145799954224,0.8811779964904254
1499369117447,-0.13055619134813456,0.4682078278782331,0.8892347600518811
1499369117463,-0.13495078965438312,0.46478980697337313,0.8853284504463268
1499369117479,-0.15570305943389018,0.4678416113527124,0.8876478217746246
1499369117495,-0.15448233768215447,0.47821774624246594,0.8882581826504925
1499369117511,-0.1555809872587166,0.4817578393224995,0.8710460059510181
1499369117527,-0.1593652246890973,0.4755321583886474,0.8593270771343553
1499369117543,-0.17889677271686866,0.4740672922865645,0.8513923857480732
1499369117559,-0.16620126649881728,0.4813916227969788,0.8539559014267182
1499369117575,-0.1426413366903181,0.4778515297169452,0.8732433051041424
1499369117591,-0.15716792553597303,0.4700389105058367,0.8737315938048367
1499369117607,-0.1333638513771267,0.3859311818112463,0.9240253299763488
1499369117623,-0.17889677271686866,0.45929655909056244,0.8794689860379954
1499369117639,-0.16803234912642084,0.46808575570305955,0.8861829556725418
1499369117655,-0.1497215228503852,0.46344701304646385,0.8683604180971995
1499369117671,-0.13727016098268097,0.45807583733882673,0.8587167162584874
1499369117687,-0.12774853131914243,0.4574654764629589,0.8689707789730674
1499369117703,-0.15082017242694734,0.4234073395895326,0.8856946669718475
1499369117719,-0.12347600518806745,0.43573662928206325,0.9085221637293053
1499369117735,-0.12091248950942246,0.4708934157320517,0.9075455863279167
1499369117751,-0.12677195391775387,0.47907225146868093,0.8905775539787903
1499369117767,-0.14532692454413665,0.47724116884107737,0.8684824902723731
1499369117783,-0.15619134813458446,0.4767528801403831,0.8727550164034481
1499369117799,-0.12335393301289388,0.4774853131914245,0.8711680781261917
1499369117815,-0.09869535362783255,0.46771953917753883,0.869092851148241
1499369117831,-0.07635614557106907,0.45709925993743816,0.861402304112306
1499369117847,-0.09527733272297256,0.46308079652094314,0.8418707560845347
1499369117863,-0.127870603494316,0.46637674525062955,0.8354009308003354
1499369117879,-0.14581521324483093,0.4623483634699017,0.8404058899824518
1499369117895,-0.15863279163805588,0.46466773479819956,0.8455329213397418
1499369117911,-0.18658731975280363,0.47235828183413453,0.8533455405508503
1499369117927,-0.18609903105210934,0.47150377660791953,0.8592050049591817
1499369117943,-0.17206073090714868,0.4527046616311896,0.8688487067978938
1499369117959,-0.166567483024338,0.4464789806973375,0.8872816052491039
1499369117975,-0.1602197299153123,0.43915465018692323,0.8849622339208061
1499369117991,-0.166567483024338,0.430121309224079,0.8719005111772331
1499369118007,-0.19122606240939977,0.4342717631799804,0.875318532082094
1499369118023,-0.21405355916685753,0.4484321355001146,0.8827649347676818
1499369118039,-0.2520180056458381,0.4556343938353553,0.8908216983291375
1499369118055,-0.2642252231631952,0.44403753719386607,0.8985122453650725
1499369118071,-0.28461127641718154,0.4418402380407418,0.9024185549706267
1499369118087,-0.2788738841840237,0.44330510414282465,0.8966811627374689
1499369118103,-0.2658121614404516,0.44000915541313823,0.8917982757305261
1499369118119,-0.2717936980239566,0.44000915541313823,0.8754406042572676
1499369118135,-0.277653162432288,0.44245059891660965,0.8625009536888681
1499369118151,-0.27411306935225443,0.44574654764629607,0.8578622110322724
1499369118167,-0.270817120622568,0.4384222171358818,0.8472419317921718
1499369118183,-0.2713054093232623,0.4384222171358818,0.8524910353246353
1499369118199,-0.27203784237430373,0.44074158846417966,0.8516365300984203
1499369118215,-0.274235141527428,0.4446478980697339,0.8524910353246353
1499369118231,-0.3023117418173493,0.4434271763179982,0.8604257267109174
1499369118247,-0.31573968108644257,0.46051728084229815,0.8472419317921718
1499369118263,-0.3028000305180436,0.43866636148622895,0.8404058899824518
1499369118279,-0.24505989166094455,0.4184023804074162,0.8762951094834825
1499369118295,-0.2280918593118182,0.4170595864805069,0.9030289158464946
1499369118311,-0.24896620126649882,0.4418402380407418,0.9038834210727096
1499369118327,-0.2764324406805523,0.456000610360876,0.875318532082094
1499369118343,-0.2936446173800258,0.4452582589456018,0.8527351796749825
1499369118359,-0.27826352330815585,0.43146410315098827,0.8634775310902567
1499369118375,-0.2763103685053787,0.43830014496070824,0.8720225833524067
1499369118391,-0.274235141527428,0.44403753719386607,0.8889906157015339
1499369118407,-0.2700846875715266,0.4464789806973375,0.8847180895704589
1499369118423,-0.25812161440451664,0.44831006332494105,0.8744640268558781
1499369118439,-0.2533607995727474,0.4589303425650417,0.8649423971923396
1499369118455,-0.2427405203326467,0.46674296177615027,0.8441901274128325
1499369118471,-0.2356603341725796,0.4603952086671246,0.8384527351796747
1499369118487,-0.22418554970626392,0.455146105134661,0.8521248187991146
1499369118503,-0.21991302357518894,0.45831998168917387,0.8625009536888681
1499369118519,-0.24872205691615168,0.48114747844663164,0.8559090562294953
1499369118535,-0.24689097428854812,0.48529793240253305,0.8462653543907832
1499369118551,-0.23443961242084388,0.4874952315556573,0.8262455176623176
1499369118567,-0.22784771496147105,0.48358892195010306,0.8408941786831461
1499369118583,-0.21771572442206466,0.4893263141832609,0.839795529106584
1499369118599,-0.1919584954604412,0.4779736018921188,0.8434576943617911
1499369118615,-0.1870756084534979,0.48273441672388806,0.8434576943617911
1499369118631,-0.19220263981078833,0.4846875715266652,0.840650034332799
1499369118647,-0.20306706340123615,0.4603952086671246,0.857129777981231
1499369118663,-0.21844815747310609,0.5122758831158922,0.8349126420996411
1499369118679,-0.21136797131303897,0.5126420996414129,0.8427252613107497
1499369118695,-0.20209048599984758,0.5014114595254444,0.8432135500114439
1499369118711,-0.23065537499046318,0.5027542534523537,0.8208743419546805
1499369118727,-0.2074616617074847,0.4922560463874266,0.8284428168154419
1499369118743,-0.19208056763561476,0.4973830777447166,0.8402838178072782
1499369118759,-0.20257877470054186,0.49909208819714657,0.8452887769893946
1499369118775,-0.22772564278629748,0.5036087586785687,0.8366216525520711
1499369118791,-0.2360265506981003,0.5084916456855115,0.8354009308003354
1499369118807,-0.22955672541390104,0.507515068284123,0.839795529106584
1499369118823,-0.21698329137102323,0.5045853360799573,0.8434576943617911
1499369118839,-0.24261844815747313,0.5080033569848172,0.8299076829175247
1499369118855,-0.21954680704966822,0.4917677576867323,0.833813992523079
1499369118871,-0.19757381551842546,0.49164568551155874,0.8424811169604025
1499369118887,-0.21173418783855968,0.49237811856260016,0.8531013962005032
1499369118903,-0.21991302357518894,0.49457541771572444,0.8458991378652625
1499369118919,-0.2205233844510568,0.48737315938048376,0.8412603952086668
1499369118935,-0.2150301365682461,0.4910353246356909,0.850293736171511
1499369118951,-0.2188143739986268,0.5011673151750973,0.8546883344777596
1499369118967,-0.2150301365682461,0.5001907377737087,0.8515144579232468
1499369118983,-0.20880445563439398,0.49579613946746015,0.8479743648432132
1499369118999,-0.2246738384069582,0.496406500343328,0.8336919203479054
1499369119015,-0.22955672541390104,0.492988479438468,0.8384527351796747
1499369119031,-0.22919050888838033,0.49420920119020373,0.8430914778362704
1499369119047,-0.22943465323872747,0.498115510795758,0.8498054474708168
1499369119063,-0.2208896009765775,0.49408712901503016,0.8456549935149154
1499369119079,-0.22320897230487535,0.49115739681086446,0.8386968795300218
1499369119095,-0.22357518883039607,0.49823758297093157,0.8378423743038068
1499369119111,-0.21942473487449465,0.5054398413061723,0.8358892195010297
1499369119127,-0.21441977569237824,0.4994583047226673,0.8347905699244675
1499369119143,-0.21771572442206466,0.4917677576867323,0.8377203021286332
1499369119159,-0.21857022964827966,0.4843213550011445,0.8422369726100554
1499369119175,-0.21905851834897394,0.49042496375982303,0.852857251850156
1499369119191,-0.21258869306477468,0.4977492942702373,0.8539559014267182
1499369119207,-0.21747158007171752,0.49994659342336156,0.8526131074998089
1499369119223,-0.22369726100556964,0.4926222629129473,0.8509040970473789
1499369119239,-0.22418554970626392,0.49250019073777374,0.851148241397726
1499369119255,-0.2191805905241475,0.48822766460669875,0.8438239108873118
1499369119271,-0.202822919050889,0.48358892195010306,0.849439230945296
1499369119287,-0.20611886778057542,0.4884718089570459,0.8466315709163039
1499369119303,-0.21612878614480824,0.49530785076676587,0.8452887769893946
1499369119319,-0.22027924010070965,0.497261005569543,0.8395513847562368
1499369119335,-0.22479591058213177,0.4909132524605173,0.8358892195010297
1499369119351,-0.22101167315175108,0.49152361333638517,0.8454108491645682
1499369119367,-0.22442969405661106,0.49286640726329445,0.8485847257190811
1499369119383,-0.22870222018768604,0.4956740672922866,0.8493171587701225
1499369119399,-0.2208896009765775,0.4905470359349966,0.8543221179522389
1499369119415,-0.21576256961928753,0.4943312733653773,0.8517586022735939
1499369119431,-0.21649500267032895,0.4896925307087816,0.8516365300984203
1499369119447,-0.21820401312275894,0.4892042420080873,0.8444342717631796
1499369119463,-0.21478599221789896,0.4918898298619059,0.8411383230334932
1499369119479,-0.2121004043640804,0.4926222629129473,0.8413824673838404
1499369119495,-0.22418554970626392,0.49323262378881516,0.8405279621576254
1499369119511,-0.2238193331807432,0.4901808194094759,0.8465094987411304
1499369119527,-0.21551842526894038,0.49079118028534374,0.8500495918211639
1499369119543,-0.21478599221789896,0.49152361333638517,0.8500495918211639
1499369119559,-0.2167391470206761,0.4893263141832609,0.8471198596169982
1499369119575,-0.21527428091859324,0.48566414892805376,0.8465094987411304
1499369119591,-0.2158846417944611,0.4896925307087816,0.8513923857480732
1499369119607,-0.2162508583199818,0.49372091248950944,0.8482185091935603
1499369119623,-0.2208896009765775,0.49372091248950944,0.8496833752956432
1499369119639,-0.21649500267032895,0.48993667505912875,0.8462653543907832
1499369119655,-0.2112458991378654,0.4898146028839552,0.8454108491645682
1499369119671,-0.21893644617380037,0.4900587472343023,0.8407721065079725
1499369119687,-0.21283283741512182,0.4979934386205844,0.832959487296864
1499369119703,-0.22186617837796607,0.48993667505912875,0.8247806515602347
1499369119719,-0.2343175402456703,0.4862745098039216,0.8400396734569311
1499369119735,-0.2276035706111239,0.4965285725185016,0.8567635614557103
1499369119751,-0.22308690012970178,0.493842984664683,0.8587167162584874
1499369119767,-0.21600671396963467,0.48395513847562377,0.853711757076371
1499369119783,-0.20514229037918685,0.4872510872053102,0.8601815823605703
1499369119799,-0.2024567025253683,0.491279468986038,0.8533455405508503
1499369119815,-0.21026932173647683,0.492988479438468,0.852002746623941
1499369119831,-0.22015716792553608,0.4917677576867323,0.8471198596169982
1499369119847,-0.23663691157396816,0.49445334554055087,0.8504158083466846
1499369119863,-0.25555809872587165,0.5021438925764858,0.8516365300984203
1499369119879,-0.24957656214236668,0.5020218204013123,0.8449225604638739
1499369119895,-0.24811169604028382,0.5026321812771801,0.8361333638513768
1499369119911,-0.2448157473105974,0.5084916456855115,0.8350347142748147
1499369119927,-0.2272373540856032,0.49152361333638517,0.8439459830624854
1499369119943,-0.21905851834897394,0.4888380254825666,0.8473640039673453
1499369119959,-0.205386434729534,0.5045853360799573,0.8549324788281067
1499369119975,-0.19916075379568188,0.5128862439917601,0.8444342717631796
1499369119991,-0.19293507286182976,0.5061722743572137,0.8305180437933926
1499369120007,-0.18646524757763006,0.5028763256275273,0.8172121766994733
1499369120023,-0.1749904631113144,0.5061722743572137,0.8097657740138855
1499369120039,-0.16424811169604014,0.5541466392004271,0.801098649576562
1499369120055,-0.22479591058213177,0.5259479667353322,0.836377508201724
1499369120071,-0.14483863584344236,0.5169146257724879,0.8302738994430454
1499369120087,-0.1881742580300605,0.5310749980926222,0.818432898451209
1499369120103,-0.1745021744106201,0.5331502250705729,0.8103761348897534
1499369120119,-0.17145037003128083,0.537666895551995,0.8262455176623176
1499369120135,-0.18780804150453978,0.5398641947051193,0.8407721065079725
1499369120151,-0.18829633020523406,0.5266803997863736,0.8334477759975583
1499369120167,-0.1928130006866562,0.5220416571297779,0.8427252613107497
1499369120183,-0.18780804150453978,0.5185015640497443,0.8489509422446018
1499369120199,-0.18194857709620793,0.5193560692759593,0.8467536430914775
1499369120215,-0.18146028839551365,0.5149614709697108,0.8352788586251618
1499369120231,-0.18512245365072078,0.5269245441367207,0.8255130846112761
1499369120247,-0.18280308232242293,0.5309529259174486,0.8166018158236055
1499369120263,-0.19354543373769761,0.5228961623559929,0.7979247730220491
1499369120279,-0.1779201953154801,0.541084916456855,0.8065918974593727
1499369120295,-0.19513237201495404,0.5416952773327228,0.813305867093919
1499369120311,-0.20428778515297186,0.5398641947051193,0.8119630731670098
1499369120327,-0.19073777370870548,0.5246051728084229,0.8379644464789804
1499369120343,-0.19183642328526762,0.5242389562829022,0.8441901274128325
1499369120359,-0.1973296711680783,0.5266803997863736,0.8412603952086668
1499369120375,-0.1923247119859619,0.5288776989394979,0.8327153429465168
1499369120391,-0.19098191805905262,0.5338826581216143,0.8240482185091933
1499369120407,-0.17694361791409152,0.5311970702677957,0.8228274967574576
1499369120423,-0.19879453727016116,0.5272907606622415,0.8271000228885326
1499369120439,-0.20318913557640972,0.5302204928664072,0.8456549935149154
1499369120455,-0.19830624856946688,0.5236285954070343,0.8456549935149154
1499369120471,-0.19623102159151617,0.5271686884870679,0.8393072404058897
1499369120487,-0.1893949797817962,0.5275349050125886,0.8324711985961697
1499369120503,-0.18060578316929865,0.5269245441367207,0.8263675898374911
1499369120519,-0.17779812314030652,0.5202105745021743,0.826977950713359
1499369120535,-0.18390173189898507,0.5211871519035629,0.8257572289616233
1499369120551,-0.1876859693293662,0.5264362554360265,0.8302738994430454
1499369120567,-0.19134813458457334,0.5255817502098115,0.826977950713359
1499369120583,-0.19452201113908618,0.5271686884870679,0.8245365072098876
1499369120599,-0.1957427328908219,0.527412832837415,0.8283207446402683
1499369120615,-0.19513237201495404,0.5329060807202257,0.832104982070649
1499369120631,-0.19415579461356547,0.5285114824139772,0.8310063324940868
1499369120647,-0.1893949797817962,0.5225299458304722,0.8308842603189133
1499369120663,-0.18451209277485292,0.5182574196993972,0.8332036316472111
1499369120679,-0.1765774013885708,0.5176470588235293,0.8296635385671776
1499369120695,-0.16681162737468513,0.5145952544441901,0.8324711985961697
1499369120711,-0.1745021744106201,0.5166704814221408,0.8408941786831461
1499369120727,-0.1862211032272829,0.5217975127794308,0.8378423743038068
1499369120743,-0.19476615548943332,0.5277790493629357,0.8407721065079725
1499369120759,-0.19720759899290474,0.5260700389105057,0.8388189517051954
1499369120775,-0.1919584954604412,0.5232623788815136,0.8366216525520711
1499369120791,-0.1862211032272829,0.5192339971007858,0.8284428168154419
1499369120807,-0.18146028839551365,0.5172808422980086,0.8216067750057219
1499369120823,-0.17889677271686866,0.5174029144731822,0.8211184863050276
1499369120839,-0.18158236057068722,0.5180132753490501,0.8279545281147476
1499369120855,-0.18194857709620793,0.5194781414511329,0.833813992523079
1499369120871,-0.18890669108110192,0.5203326466773479,0.8417486839093611
1499369120887,-0.1867093919279772,0.5210650797283893,0.8423590447852289
1499369120903,-0.1867093919279772,0.5191119249256122,0.8394293125810632
1499369120919,-0.18231479362172864,0.5148393987945372,0.8426031891355761
1499369120935,-0.1753566796368351,0.5144731822690165,0.8465094987411304
1499369120951,-0.18133821622034008,0.5174029144731822,0.8457770656900889
1499369120967,-0.18219272144655507,0.5180132753490501,0.8449225604638739
1499369120983,-0.1832913710231172,0.5177691309987029,0.8433356221866175
1499369120999,-0.1931792172121769,0.5161821927214465,0.8435797665369646
1499369121015,-0.1923247119859619,0.5148393987945372,0.8498054474708168
1499369121031,-0.18255893797207579,0.5176470588235293,0.8457770656900889
1499369121047,-0.18353551537346435,0.5188677805752651,0.8371099412527654
1499369121063,-0.18487830930037363,0.5193560692759593,0.8328374151216904
1499369121079,-0.18927290760662263,0.5260700389105057,0.8317387655451283
1499369121095,-0.2066071564812697,0.5200885023270008,0.8250247959105819
1499369121111,-0.20172426947432687,0.5260700389105057,0.8081788357366291
1499369121127,-0.20929274433508827,0.5156939040207522,0.8327153429465168
1499369121143,-0.19964904249637616,0.52143129625391,0.8466315709163039
1499369121159,-0.17633325703822367,0.52314030670634,0.8504158083466846
1499369121175,-0.16437018387121372,0.5169146257724879,0.864820325017166
1499369121191,-0.19452201113908618,0.5142290379186694,0.8589608606088346
1499369121207,-0.19928282597085545,0.5038529030289158,0.8480964370183868
1499369121223,-0.2091706721599147,0.5136186770428015,0.8400396734569311
1499369121239,-0.1919584954604412,0.5193560692759593,0.8368657969024182
1499369121255,-0.1862211032272829,0.5093461509117265,0.829541466392004
1499369121271,-0.1854886701762415,0.49872587167162585,0.8291752498664833
1499369121287,-0.18512245365072078,0.4993362325474937,0.8271000228885326
1499369121303,-0.1893949797817962,0.5014114595254444,0.8242923628595404
1499369121318,-0.19134813458457334,0.5078812848096437,0.8217288471808954
1499369121334,-0.19073777370870548,0.5127641718165865,0.8275883115892269
1499369121350,-0.19342336156252404,0.5210650797283893,0.8325932707713433
1499369121366,-0.19586480506599546,0.5203326466773479,0.8386968795300218
1499369121382,-0.19220263981078833,0.5167925535973144,0.8427252613107497
1499369121398,-0.19208056763561476,0.5114213778896772,0.8451667048142211
1499369121414,-0.1923247119859619,0.5045853360799573,0.8451667048142211
1499369121430,-0.19000534065766406,0.49713893339436943,0.8433356221866175
1499369121446,-0.1911039902342262,0.5028763256275273,0.8432135500114439
1499369121462,-0.20257877470054186,0.5149614709697108,0.8445563439383532
1499369121478,-0.21185626001373326,0.5131303883421072,0.8440680552376589
1499369121494,-0.2103913939116504,0.510078583962768,0.8468757152666511
1499369121510,-0.20294499122606258,0.504951552605478,0.8455329213397418
1499369121526,-0.1961089494163426,0.5086137178606851,0.8498054474708168
1499369121542,-0.19354543373769761,0.510078583962768,0.8469977874418246
1499369121558,-0.19549858854047475,0.510078583962768,0.8375982299534597
1499369121574,-0.2007476920729383,0.5105668726634622,0.8333257038223847
1499369121590,-0.20050354772259116,0.5128862439917601,0.8357671473258561
1499369121606,-0.20477607385366614,0.5153276874952315,0.8308842603189133
1499369121622,-0.20965896086060898,0.5106889448386358,0.8290531776913097
1499369121638,-0.19916075379568188,0.5117875944151979,0.8375982299534597
1499369121654,-0.19671931029221046,0.5152056153200579,0.8384527351796747
1499369121670,-0.19794003204394617,0.5103227283131151,0.8311284046692604
1499369121686,-0.18634317540245648,0.5051956969558251,0.8362554360265504
1499369121702,-0.17987335011825722,0.5076371404592965,0.8395513847562368
1499369121718,-0.19000534065766406,0.5155718318455786,0.8416266117341875
1499369121734,-0.19647516594186332,0.5167925535973144,0.8327153429465168
1499369121750,-0.1928130006866562,0.509224078736553,0.8283207446402683
1499369121766,-0.1940337224383919,0.5095902952620737,0.8246585793850612
1499369121782,-0.20135805294880615,0.5181353475242236,0.8284428168154419
1499369121798,-0.20611886778057542,0.52484931715877,0.8356450751506825
1499369121814,-0.20758373388265827,0.5158159761959258,0.8419928282597082
1499369121830,-0.19830624856946688,0.5077592126344701,0.8513923857480732
1499369121846,-0.18390173189898507,0.5051956969558251,0.8544441901274125
1499369121862,-0.18597695887693577,0.5093461509117265,0.8501716639963375
1499369121878,-0.19134813458457334,0.5062943465323873,0.8426031891355761
1499369121894,-0.2016021972991533,0.5105668726634622,0.8401617456321047
1499369121910,-0.20428778515297186,0.5145952544441901,0.8438239108873118
1499369121926,-0.1961089494163426,0.5153276874952315,0.8456549935149154
1499369121942,-0.20514229037918685,0.5130083161669337,0.8434576943617911
1499369121958,-0.1940337224383919,0.508369573510338,0.8408941786831461
1499369121974,-0.1862211032272829,0.5112993057145037,0.8485847257190811
1499369121990,-0.1876859693293662,0.5089799343862058,0.8439459830624854
1499369122006,-0.18719768062867148,0.5065384908827344,0.8367437247272447
1499369122022,-0.1890287632562755,0.5087357900358587,0.836377508201724
1499369122038,-0.19684138246738403,0.5116655222400244,0.8362554360265504
1499369122054,-0.1973296711680783,0.5105668726634622,0.8335698481727318
1499369122070,-0.19159227893492048,0.509224078736553,0.8344243533989468
1499369122086,-0.19269092851148262,0.5108110170138094,0.8383306630045011
1499369122102,-0.19745174334325188,0.5112993057145037,0.8427252613107497
1499369122118,-0.1931792172121769,0.5125200274662394,0.8450446326390475
1499369122134,-0.19269092851148262,0.5134966048676279,0.8424811169604025
1499369122150,-0.19476615548943332,0.5117875944151979,0.8433356221866175
1499369122166,-0.18976119630731692,0.5114213778896772,0.8383306630045011
1499369122182,-0.19049362935835834,0.5105668726634622,0.8351567864499883
1499369122198,-0.18841840238040763,0.5072709239337758,0.8399176012817575
1499369122214,-0.19037155718318477,0.5078812848096437,0.8426031891355761
1499369122230,-0.19098191805905262,0.5071488517586022,0.8411383230334932
1499369122246,-0.19769588769359903,0.5141069657434958,0.8427252613107497
1499369122262,-0.19940489814602902,0.5139848935683222,0.8408941786831461
1499369122278,-0.1952544441901276,0.5130083161669337,0.8472419317921718
1499369122294,-0.1914702067597469,0.5106889448386358,0.8460212100404361
1499369122310,-0.19049362935835834,0.5105668726634622,0.8450446326390475
1499369122326,-0.19159227893492048,0.5095902952620737,0.8448004882887004
1499369122342,-0.19171435111009405,0.5076371404592965,0.8369878690775918
1499369122358,-0.18609903105210934,0.5111772335393301,0.8394293125810632
1499369122374,-0.18988326848249049,0.5123979552910658,0.835523002975509
1499369122390,-0.19244678416113548,0.5116655222400244,0.8327153429465168
1499369122406,-0.19134813458457334,0.5070267795834287,0.8322270542458226
1499369122422,-0.1914702067597469,0.5088578622110322,0.838941023880369
1499369122438,-0.1943999389639126,0.5137407492179751,0.8446784161135268
1499369122454,-0.1995269703212026,0.5148393987945372,0.8435797665369646
1499369122470,-0.19635309376668975,0.509224078736553,0.8411383230334932
1499369122486,-0.1928130006866562,0.5088578622110322,0.8437018387121382
1499369122502,-0.19501029983978047,0.5111772335393301,0.8399176012817575
1499369122518,-0.1890287632562755,0.5087357900358587,0.8424811169604025
1499369122534,-0.18976119630731692,0.5117875944151979,0.8438239108873118
1499369122550,-0.1881742580300605,0.5127641718165865,0.8368657969024182
1499369122566,-0.19073777370870548,0.5142290379186694,0.8297856107423511
1499369122582,-0.18878461890592835,0.510933089188983,0.828686961165789
1499369122598,-0.18951705195696977,0.5081254291599908,0.8250247959105819
1499369122614,-0.18719768062867148,0.508369573510338,0.8340581368734261
1499369122630,-0.19378957808804476,0.5061722743572137,0.8433356221866175
1499369122646,-0.17694361791409152,0.5120317387655451,0.8371099412527654
1499369122662,-0.19635309376668975,0.5142290379186694,0.8412603952086668
1499369122678,-0.20892652780956755,0.5148393987945372,0.8455329213397418
1499369122694,-0.1961089494163426,0.5087357900358587,0.8461432822156096
1499369122710,-0.17633325703822367,0.5076371404592965,0.8529793240253296
1499369122726,-0.18023956664377794,0.503242542153048,0.8419928282597082
1499369122742,-0.1774319066147858,0.5003128099488823,0.8384527351796747
1499369122758,-0.18634317540245648,0.5071488517586022,0.8439459830624854
1499369122774,-0.18890669108110192,0.5165484092469672,0.832959487296864
1499369122790,-0.18805218585488692,0.5016556038757916,0.8356450751506825
1499369122806,-0.1795071335927365,0.4826123445487145,0.8476081483176925
1499369122822,-0.17059586480506583,0.47736324101625094,0.8567635614557103
1499369122838,-0.16437018387121372,0.49030289158464946,0.865674830243381
1499369122854,-0.15802243076218803,0.497261005569543,0.8621347371633474
1499369122870,-0.14898908979934378,0.4901808194094759,0.8506599526970318
1499369122886,-0.14019989318684667,0.48187991149767306,0.8452887769893946
1499369122902,-0.14203097581445023,0.4755321583886474,0.852002746623941
1499369122918,-0.15338368810559233,0.46088349736781886,0.8775158312352183
1499369122934,-0.1412985427634088,0.42731364919508685,0.8842298008697647
1499369122950,-0.11541924162661177,0.44745555809872606,0.8983901731898989
1499369122966,-0.17047379262989226,0.47772945754177165,0.8985122453650725
1499369122982,-0.18353551537346435,0.48957045853360803,0.8889906157015339
1499369122998,-0.18194857709620793,0.4831006332494088,0.879591058213169
1499369123014,-0.1753566796368351,0.4686961165789274,0.8767833981841768
1499369123030,-0.17523460746166153,0.4603952086671246,0.8693369954985881
1499369123046,-0.17389181353475225,0.46381322957198456,0.8704356450751503
1499369123062,-0.18353551537346435,0.4704051270313574,0.8758068207827883
1499369123078,-0.1762111848630501,0.4737010757610438,0.8792248416876483
1499369123094,-0.1736476691844051,0.47431143663691167,0.8823987182421611
1499369123110,-0.17865262836652152,0.467963683527886,0.8767833981841768
1499369123126,-0.17975127794308365,0.465400167849241,0.8709239337758445
1499369123142,-0.1829251544975965,0.4616159304188603,0.8617685206378267
1499369123158,-0.17560082398718224,0.465400167849241,0.8585946440833139
1499369123174,-0.17962920576791008,0.47602044708934166,0.8589608606088346
1499369123190,-0.18316929884794364,0.4721141374837874,0.8642099641412981
1499369123206,-0.1812161440451665,0.47443350881208524,0.8664072632944224
1499369123222,-0.18146028839551365,0.4712596322575724,0.8655527580682074
1499369123238,-0.18658731975280363,0.46894026092927454,0.8671396963454638
1499369123254,-0.18731975280384505,0.468818188754101,0.8723887998779274
1499369123270,-0.18316929884794364,0.4702830548561838,0.8743419546807045
1499369123286,-0.18658731975280363,0.4717479209582667,0.8717784390020595
1499369123302,-0.1862211032272829,0.47223620965896096,0.867383840695811
1499369123318,-0.1817044327458608,0.4650339513237203,0.8620126649881739
1499369123334,-0.17804226749065366,0.46564431219958813,0.8592050049591817
1499369123350,-0.17560082398718224,0.4721141374837874,0.8532234683756768
1499369123366,-0.18426794842450578,0.468818188754101,0.8531013962005032
1499369123382,-0.19049362935835834,0.46723125047684455,0.8604257267109174
1499369123398,-0.18475623712520006,0.4595407034409096,0.8711680781261917
1499369123414,-0.18780804150453978,0.46259250782024885,0.8792248416876483
1499369123430,-0.18780804150453978,0.46564431219958813,0.8771496147096975
1499369123446,-0.18805218585488692,0.46686503395132384,0.8765392538338297
1499369123462,-0.18402380407415864,0.4635690852216374,0.8766613260090033
1499369123478,-0.18231479362172864,0.460273136491951,0.8745860990310517
1499369123494,-0.18048371099412508,0.46173800259403386,0.8695811398489353
1499369123510,-0.1841458762493322,0.46173800259403386,0.860547798886091
1499369123526,-0.1906157015335319,0.4632028686961167,0.865674830243381
1499369123542,-0.18255893797207579,0.4603952086671246,0.8695811398489353
1499369123558,-0.18426794842450578,0.4578316929884796,0.8803234912642104
1499369123574,-0.18133821622034008,0.45429159990844603,0.8810559243152518
1499369123590,-0.18829633020523406,0.46186007476920743,0.8852063782711532
1499369123606,-0.19476615548943332,0.46478980697337313,0.8843518730449382
1499369123622,-0.19183642328526762,0.47186999313344025,0.8755626764324411
1499369123638,-0.18255893797207579,0.4721141374837874,0.8672617685206374
1499369123654,-0.17084000915541298,0.466254673075456,0.8667734798199431
1499369123670,-0.15997558556496516,0.4561226825360496,0.8676279850461581
1499369123686,-0.15069810025177377,0.4557564660105289,0.8686045624475467
1499369123702,-0.1593652246890973,0.46210421911955457,0.8683604180971995
1499369123718,-0.17511253528648796,0.46637674525062955,0.8703135728999767
1499369123734,-0.18683146410315077,0.4661326009002824,0.8653086137178603
1499369123750,-0.1749904631113144,0.4674753948271917,0.8600595101853967
1499369123766,-0.16681162737468513,0.4649118791485467,0.8599374380102232
1499369123782,-0.1774319066147858,0.4632028686961167,0.8706797894254974
1499369123798,-0.17132829785610726,0.4564888990615703,0.8772716868848711
1499369123814,-0.1727931639581901,0.459418631265736,0.8792248416876483
1499369123830,-0.17889677271686866,0.4426947432669568,0.9000991836423289
1499369123846,-0.1808499275196458,0.4649118791485467,0.883863584344244
1499369123862,-0.17376974135957868,0.45807583733882673,0.8849622339208061
1499369123878,-0.18402380407415864,0.45551232166018174,0.8827649347676818
1499369123894,-0.16034180209048587,0.458564126039521,0.8693369954985881
1499369123910,-0.16009765774013873,0.464545662623026,0.8650644693675131
1499369123926,-0.16913099870298298,0.45551232166018174,0.867383840695811
1499369123942,-0.14691386282139307,0.455146105134661,0.8767833981841768
1499369123958,-0.15216296635385662,0.4686961165789274,0.8816662851911197
1499369123974,-0.1837796597238115,0.47223620965896096,0.8703135728999767
1499369123990,-0.1890287632562755,0.4737010757610438,0.8559090562294953
1499369124006,-0.17926298924238937,0.47443350881208524,0.8572518501564046
1499369124022,-0.17315938048371082,0.4795605401693752,0.861402304112306
1499369124038,-0.17084000915541298,0.47650873579003594,0.8583504997329667
1499369124054,-0.1719386587319751,0.4616159304188603,0.8628671702143889
1499369124070,-0.16217288471808944,0.4624704356450753,0.872510872053101
1499369124086,-0.1715724422064544,0.4717479209582667,0.870801861600671
1499369124102,-0.16729991607537942,0.4708934157320517,0.8666514076447696
1499369124118,-0.17669947356374438,0.4640573739223317,0.8686045624475467
1499369124134,-0.17047379262989226,0.4325627527275504,0.8897230487525754
1499369124150,-0.16961928740367727,0.4614938582436867,0.8885023270008396
1499369124166,-0.15924315251392374,0.44586861982146964,0.8958266575112539
1499369124182,-0.16009765774013873,0.46137178606851315,0.8896009765774018
1499369124198,-0.15863279163805588,0.46173800259403386,0.8861829556725418
1499369124214,-0.16424811169604014,0.46259250782024885,0.8881361104753189
1499369124230,-0.16717784390020585,0.4640573739223317,0.8955825131609068
1499369124246,-0.16302738994430443,0.4624704356450753,0.8876478217746246
1499369124262,-0.162294956893263,0.46430151827267885,0.8782482642862597
1499369124278,-0.15655756466010518,0.47443350881208524,0.8628671702143889
1499369124294,-0.1497215228503852,0.4824902723735409,0.8443121995880061
1499369124310,-0.14752422369726093,0.4627145799954224,0.8418707560845347
1499369124326,-0.15338368810559233,0.4544136720836196,0.8507820248722053
1499369124342,-0.18316929884794364,0.47309071488517596,0.8544441901274125
1499369124358,-0.1902494850080112,0.4804150453955902,0.8595712214847024
1499369124374,-0.1902494850080112,0.4793163958190281,0.8661631189440753
1499369124390,-0.17645532921339724,0.47772945754177165,0.8734874494544895
1499369124406,-0.166567483024338,0.47186999313344025,0.8684824902723731
1499369124422,-0.17303730830853725,0.458564126039521,0.8638437476157774
1499369124438,-0.16473640039673443,0.45551232166018174,0.8440680552376589
1499369124454,-0.18133821622034008,0.46515602349889384,0.8461432822156096
1499369124470,-0.19244678416113548,0.4776073853665981,0.8577401388570989
1499369124486,-0.20978103303578255,0.4724803540093081,0.873365377279316
1499369124502,-0.22442969405661106,0.4694285496299688,0.8732433051041424
1499369124518,-0.2394445716029603,0.45673304341191745,0.8714122224765388
1499369124534,-0.2582436865796902,0.46478980697337313,0.8637216754406039
1499369124550,-0.28363469901579297,0.47602044708934166,0.8616464484626531
1499369124566,-0.29169146257724865,0.49445334554055087,0.8532234683756768
1499369124582,-0.30182345311665504,0.5028763256275273,0.8443121995880061
1499369124598,-0.30341039139391146,0.4910353246356909,0.8394293125810632
1499369124614,-0.2860761425192644,0.47101548790722525,0.836377508201724
1499369124630,-0.23334096284428174,0.46466773479819956,0.8024414435034712
1499369124646,-0.23321889066910817,0.46015106431677744,0.797680628671702
1499369124662,-0.24689097428854812,0.47443350881208524,0.8136720836194398
1499369124678,-0.2642252231631952,0.47724116884107737,0.8374761577782861
1499369124694,-0.2886396581979094,0.4791943236438545,0.8484626535439075
1499369124710,-0.30438696879530003,0.48651865415426876,0.8560311284046689
1499369124726,-0.3268482490272375,0.4872510872053102,0.8500495918211639
1499369124742,-0.3333180743114368,0.4837109941252766,0.8424811169604025
1499369124758,-0.32172121766994755,0.47479972533760595,0.8426031891355761
1499369124774,-0.319890135042344,0.47186999313344025,0.836377508201724
1499369124790,-0.32257572289616254,0.4783398184176395,0.8310063324940868
1499369124806,-0.3278248264286261,0.48017090104524307,0.8240482185091933
1499369124822,-0.31744869153887256,0.47357900358587024,0.8233157854581519
1499369124838,-0.2965743495841915,0.47064927138170454,0.8299076829175247
1499369124854,-0.2993820096131836,0.47052719920653097,0.8322270542458226
1499369124870,-0.30389868009460574,0.47516594186312666,0.8299076829175247
1499369124886,-0.30353246356908503,0.4728465705348288,0.8301518272678718
1499369124902,-0.30426489662012646,0.47394522011139095,0.8296635385671776
1499369124918,-0.2965743495841915,0.4673533226520181,0.8323491264209961
1499369124934,-0.30060273136491933,0.4666208896009767,0.8283207446402683
1499369124950,-0.30426489662012646,0.4691844052796217,0.8356450751506825
1499369124966,-0.32208743419546826,0.47736324101625094,0.837232013427939
1499369124982,-0.3218432898451211,0.47565423056382095,0.8357671473258561
1499369124998,-0.3211108567940797,0.47516594186312666,0.827832455939574
1499369125014,-0.31842526894026113,0.46894026092927454,0.8264896620126647
1499369125030,-0.3070725566491186,0.4641794460975053,0.8273441672388797
1499369125046,-0.30182345311665504,0.47138170443274596,0.8332036316472111
1499369125062,-0.30341039139391146,0.4708934157320517,0.8351567864499883
1499369125078,-0.3031662470435643,0.4690623331044481,0.8341802090485997
1499369125094,-0.3065842679484243,0.46979476615548954,0.8334477759975583
1499369125110,-0.2952315556572822,0.4641794460975053,0.8385748073548482
1499369125126,-0.2986495765621422,0.46393530174715814,0.8395513847562368
1499369125142,-0.3023117418173493,0.46601052872510884,0.8354009308003354
1499369125158,-0.313908598458839,0.4690623331044481,0.8400396734569311
1499369125174,-0.32550545510032824,0.4746776531624324,0.838941023880369
1499369125190,-0.3226977950713361,0.4779736018921188,0.8313725490196076
1499369125206,-0.3283131151293204,0.4673533226520181,0.8272220950637061
1499369125222,-0.32794689860379966,0.4664988174258031,0.8219729915312426
1499369125238,-0.32672617685206395,0.47138170443274596,0.8169680323491262
1499369125254,-0.32086671244373255,0.4686961165789274,0.8181887541008619
1499369125270,-0.31879148546578184,0.47064927138170454,0.8200198367284655
1499369125286,-0.32587167162584896,0.46100556954299243,0.8263675898374911
1499369125302,-0.34613565270466173,0.4690623331044481,0.8262455176623176
1499369125318,-0.32843518730449395,0.46857404440375383,0.8262455176623176
1499369125334,-0.313054093232624,0.4661326009002824,0.8219729915312426
1499369125350,-0.30255588616769646,0.45722133211261173,0.8258793011367969
1499369125366,-0.3211108567940797,0.45929655909056244,0.8373540856031125
1499369125382,-0.3328297856107425,0.4623483634699017,0.8417486839093611
1499369125398,-0.34821087968261244,0.4649118791485467,0.8366216525520711
1499369125414,-0.3703059433890288,0.47016098268101025,0.8364995803768975
1499369125430,-0.36249332417792024,0.4728465705348288,0.8362554360265504
1499369125446,-0.35907530327306025,0.4711375600823988,0.8279545281147476
1499369125462,-0.3512626840619517,0.4711375600823988,0.8223392080567633
1499369125478,-0.3396658274204625,0.4707713435568781,0.8191653315022505
1499369125494,-0.33295185778591607,0.47443350881208524,0.8180666819256883
1499369125510,-0.317326619363699,0.46857404440375383,0.8220950637064162
1499369125526,-0.2955977721828029,0.4678416113527124,0.8161135271229112
1499369125542,-0.2986495765621422,0.4694285496299688,0.8064698252841991
1499369125558,-0.29047074082551294,0.45844205386434744,0.8299076829175247
1499369125574,-0.29425497825589364,0.46393530174715814,0.8378423743038068
1499369125590,-0.3053635461966886,0.4695506218051424,0.834668497749294
1499369125606,-0.312077515831235,0.4787060349431602,0.8274662394140533
1499369125622,-0.29584191653315006,0.4635690852216374,0.8274662394140533
1499369125638,-0.2973067826352329,0.4509956511787596,0.8318608377203018
1499369125654,-0.31183337148088786,0.4556343938353553,0.8345464255741204
1499369125670,-0.32721446555275824,0.4599069199664303,0.837232013427939
1499369125686,-0.3416189822232396,0.47016098268101025,0.8378423743038068
1499369125702,-0.3682307164110781,0.48114747844663164,0.8241702906843669
1499369125718,-0.39264515144579226,0.4896925307087816,0.7926756694895856
1499369125734,-0.3906919966430151,0.4644235904478524,0.8073243305104141
1499369125750,-0.3768978408484016,0.4716258487830931,0.8264896620126647
1499369125766,-0.3613946746013581,0.4791943236438545,0.8225833524071104
1499369125782,-0.3682307164110781,0.4804150453955902,0.8130617227435719
1499369125798,-0.34271763179980175,0.46845197222858026,0.8117189288166626
1499369125814,-0.3374685282673382,0.4691844052796217,0.8129396505683983
1499369125830,-0.33856717784390034,0.47479972533760595,0.8301518272678718
1499369125846,-0.3538261997405967,0.4854200045777066,0.8340581368734261
1499369125862,-0.3530937666895553,0.4807812619211109,0.8322270542458226
1499369125878,-0.3371023117418175,0.47150377660791953,0.8352788586251618
1499369125894,-0.3256275272755018,0.4750438696879531,0.8371099412527654
1499369125910,-0.31842526894026113,0.49579613946746015,0.8291752498664833
1499369125926,-0.3340505073624782,0.4960402838178073,0.8448004882887004
1499369125942,-0.2948653391317615,0.4943312733653773,0.8373540856031125
1499369125958,-0.29633020523384435,0.5082475013351644,0.8256351567864497
1499369125974,-0.27191577019913016,0.5014114595254444,0.8446784161135268
1499369125990,-0.2356603341725796,0.5137407492179751,0.8216067750057219
1499369126006,-0.2243076218814375,0.5254596780346379,0.8153810940718698
1499369126022,-0.1981841763942933,0.525703822384985,0.8155031662470433
1499369126038,-0.16717784390020585,0.5521934843976499,0.7903562981612877
1499369126054,-0.17486839093614082,0.5210650797283893,0.7886472877088577
1499369126070,-0.15741206988632017,0.5076371404592965,0.7987792782482641
1499369126086,-0.20184634164950044,0.5181353475242236,0.829541466392004
1499369126102,-0.2267490653849089,0.5315632867933164,0.8161135271229112
1499369126118,-0.22772564278629748,0.5407186999313343,0.813305867093919
1499369126134,-0.21112382696269183,0.5498741130693521,0.8108644235904476
1499369126150,-0.19049362935835834,0.557564660105287,0.801098649576562
1499369126166,-0.20306706340123615,0.53852140077821,0.7991454947737848
1499369126182,-0.2272373540856032,0.5535362783245592,0.7923094529640649
1499369126198,-0.24347295338368813,0.556710154879072,0.7929198138399327
1499369126214,-0.2621499961852445,0.5531700617990385,0.8017090104524298
1499369126230,-0.2587319752803845,0.5597619592584113,0.7921873807888913
1499369126246,-0.23248645761806674,0.5440146486610207,0.7957274738689248
1499369126262,-0.23285267414358746,0.5401083390554664,0.801098649576562
1499369126278,-0.2208896009765775,0.5454795147631035,0.8042725261310748
1499369126294,-0.21234454871442754,0.5468223086900128,0.8124513618677041
1499369126310,-0.21661707484550252,0.5437705043106735,0.8195315480277712
1499369126326,-0.2124666208896011,0.5380331120775157,0.821850919356069
1499369126342,-0.21637293049515538,0.539375906004425,0.825268940260929
1499369126358,-0.2238193331807432,0.5421835660334171,0.8211184863050276
1499369126374,-0.22308690012970178,0.5373006790264743,0.8190432593270769
1499369126390,-0.22272068360418107,0.5396200503547721,0.8136720836194398
1499369126406,-0.2284580758373389,0.5431601434348057,0.8100099183642326
1499369126422,-0.2348058289463646,0.5408407721065078,0.8018310826276034
1499369126438,-0.2272373540856032,0.5401083390554664,0.8030518043793391
1499369126454,-0.23114366369115746,0.5394979781795985,0.8092774853131912
1499369126470,-0.23248645761806674,0.5394979781795985,0.8173342488746469
1499369126486,-0.22906843671320676,0.5388876173037307,0.8129396505683983
1499369126502,-0.22711528191042962,0.5341268024719614,0.8124513618677041
1499369126518,-0.23273060196841389,0.5338826581216143,0.814160372320134
1499369126534,-0.2238193331807432,0.5366903181506064,0.8168459601739526
1499369126550,-0.22504005493247892,0.5399862668802928,0.8156252384222169
1499369126566,-0.23749141680018315,0.5414511329823757,0.8157473105973905
1499369126582,-0.24603646906233312,0.5460898756389714,0.8124513618677041
1499369126598,-0.2477454795147631,0.5425497825589378,0.8098878461890591
1499369126614,-0.2368810559243153,0.5425497825589378,0.8102540627145798
1499369126630,-0.22662699320973534,0.5336385137712671,0.8072022583352405
1499369126646,-0.22211032272831321,0.5300984206912336,0.8067139696345462
1499369126662,-0.22613870450904106,0.5373006790264743,0.8081788357366291
1499369126678,-0.23492790112153816,0.5404745555809871,0.8090333409628441
1499369126694,-0.23834592202639815,0.54023041123064,0.8079346913862819
1499369126710,-0.23907835507743957,0.5412069886320285,0.817578393224994
1499369126726,-0.23553826199740602,0.53852140077821,0.8216067750057219
1499369126742,-0.2301670862897689,0.5360799572747386,0.8187991149767297
1499369126758,-0.22601663233386748,0.5348592355230029,0.8205081254291597
1499369126774,-0.23419546807049674,0.5398641947051193,0.8231937132829783
1499369126790,-0.23370717936980245,0.5347371633478293,0.8148928053711755
1499369126806,-0.2330968184939346,0.53510337987335,0.8115968566414891
1499369126822,-0.23077744716563675,0.5381551842526893,0.8113527122911419
1499369126838,-0.2360265506981003,0.5392538338292514,0.8113527122911419
1499369126854,-0.243228809033341,0.5416952773327228,0.8092774853131912
1499369126870,-0.2448157473105974,0.5394979781795985,0.813305867093919
1499369126886,-0.23504997329671173,0.541084916456855,0.8139162279697869
1499369126902,-0.25555809872587165,0.5360799572747386,0.8207522697795069
1499369126918,-0.2562905317769131,0.5468223086900128,0.8242923628595404
1499369126934,-0.2427405203326467,0.5556115053025099,0.8214847028305483
1499369126950,-0.23578240634775316,0.5491416800183107,0.8190432593270769
1499369126966,-0.25397116044861523,0.5436484321355,0.8159914549477376
1499369126982,-0.26849774929427017,0.5593957427328906,0.8131837949187455
1499369126998,-0.24982070649271382,0.5728236820019834,0.8146486610208283
1499369127014,-0.20636301213092256,0.5696498054474706,0.8146486610208283
1499369127030,-0.17584496833752938,0.5574425879301135,0.8098878461890591
1499369127046,-0.14959945067521163,0.5656214236667427,0.802807660028992
1499369127062,-0.1547264820325016,0.5847867551689934,0.8084229800869762
1499369127078,-0.14984359502555877,0.5736781872281984,0.816723887998779
1499369127094,-0.1589990081635766,0.569527733272297,0.8031738765545127
1499369127110,-0.1383688105592431,0.5713588158999006,0.799389639124132
1499369127126,-0.10150301365682468,0.5828336003662162,0.7816891737239642
1499369127142,-0.10516517891203181,0.5991912718394747,0.7769283588921949
1499369127158,-0.09491111619745185,0.5586633096818492,0.7913328755626763
1499369127174,-0.08538948653391332,0.544502937361715,0.7827878233005263
1499369127190,-0.0733043411917298,0.5548790722514685,0.800244144350347
1499369127206,-0.08282597085526833,0.5637903410391392,0.8006103608758677
1499369127222,-0.1098039215686275,0.5657434958419163,0.8084229800869762
1499369127238,-0.12225528343633174,0.5711146715495534,0.8107423514152741
1499369127254,-0.14105439841306167,0.582345311665522,0.8059815365835048
1499369127270,-0.1493553063248645,0.5894254978255891,0.8097657740138855
1499369127286,-0.14496070801861594,0.5831998168917369,0.8119630731670098
1499369127302,-0.14142061493858238,0.5694056610971234,0.8113527122911419
1499369127318,-0.12213321126115817,0.5642786297398334,0.814160372320134
1499369127334,-0.11187914854657821,0.5718471046005948,0.8139162279697869
1499369127350,-0.1115129320210575,0.5773403524834055,0.8159914549477376
1499369127366,-0.1190814068818189,0.5709925993743799,0.815869382772564
1499369127382,-0.12127870603494317,0.5664759288929577,0.8187991149767297
1499369127398,-0.11883726253147175,0.5694056610971234,0.8233157854581519
1499369127414,-0.1249408712901503,0.5745326924544134,0.8183108262760355
1499369127430,-0.13324177920195313,0.5706263828488591,0.817578393224994
1499369127446,-0.14373998626688023,0.5786831464103148,0.8181887541008619
1499369127462,-0.14373998626688023,0.5829556725413898,0.8115968566414891
1499369127478,-0.12127870603494317,0.5751430533302813,0.8135500114442662
1499369127494,-0.09246967269398043,0.5647669184405277,0.8258793011367969
1499369127510,-0.07818722819867263,0.5662317845426106,0.8358892195010297
1499369127526,-0.0800183108262762,0.5740444037537191,0.8274662394140533
1499369127542,-0.08819714656290545,0.5827115281910427,0.8072022583352405
1499369127558,-0.09027237354085615,0.5875944151979855,0.7832761120012206
1499369127574,-0.10846112764171822,0.5958953231097883,0.7732661936369878
1499369127590,-0.13568322270542454,0.6131074998092618,0.766674296177615
1499369127606,-0.14312962539101237,0.6156710154879068,0.7693598840314335
1499369127622,-0.13824673838406953,0.6105439841306168,0.7680170901045242
1499369127638,-0.12335393301289388,0.605661097123674,0.7620355535210193
1499369127654,-0.12066834515907532,0.6026092927443347,0.7575188830395971
1499369127670,-0.11847104600595104,0.602243076218814,0.7583733882658121
1499369127686,-0.12628366521705958,0.6037079423208969,0.76240177004654
1499369127702,-0.14081025406271452,0.598825055313954,0.7885252155336842
1499369127718,-0.12506294346532387,0.5972381170366976,0.8003662165255205
1499369127734,-0.1115129320210575,0.599679560540169,0.8092774853131912
1499369127750,-0.10797283894102394,0.5978484779125655,0.8145265888456548
1499369127766,-0.11676203555352105,0.5917448691538869,0.8139162279697869
1499369127782,-0.11493095292591748,0.5952849622339205,0.8050049591821162
1499369127798,-0.11261158159761964,0.5960173952849619,0.7980468451972227
1499369127814,-0.12140077821011674,0.5934538796063169,0.7957274738689248
1499369127830,-0.13006790264744028,0.5943083848325319,0.7941405355916684
1499369127846,-0.12762645914396886,0.5974822613870447,0.8012207217517355
1499369127862,-0.11883726253147175,0.5963836118104826,0.7963378347447927
1499369127878,-0.12726024261844815,0.5940642404821848,0.7903562981612877
1499369127894,-0.1308003356984817,0.5955291065842676,0.783154039826047
1499369127910,-0.12384222171358816,0.6028534370946819,0.7862058442053863
1499369127926,-0.12176699473563746,0.5968719005111769,0.7906004425116349
1499369127942,-0.1161516746776532,0.5913786526283662,0.797680628671702
1499369127958,-0.11883726253147175,0.5880827038986798,0.7999999999999998
1499369127974,-0.12298771648737317,0.5946746013580526,0.8032959487296862
1499369127990,-0.10968184939345393,0.607370107576104,0.7964599069199663
1499369128006,-0.11407644769970249,0.597116044861524,0.7821774624246585
1499369128022,-0.15106431677729448,0.6034637979705497,0.780590524147402
1499369128038,-0.15875486381322945,0.6129854276340883,0.7887693598840313
1499369128054,-0.13775844968337525,0.606515602349889,0.7903562981612877
1499369128070,-0.09381246662088971,0.5860074769207291,0.7914549477378499
1499369128086,-0.08368047608148332,0.5808804455634391,0.7967040512703134
1499369128102,-0.10406652933546967,0.5894254978255891,0.8003662165255205
1499369128118,-0.12335393301289388,0.6017547875181197,0.8009765774013884
1499369128134,-0.13531700617990383,0.607370107576104,0.7957274738689248
1499369128150,-0.13702601663233382,0.6072480354009304,0.7887693598840313
1499369128166,-0.13055619134813456,0.6072480354009304,0.7752193484397649
1499369128182,-0.11944762340733961,0.6016327153429462,0.7659418631265735
1499369128198,-0.11468680857557034,0.5952849622339205,0.7608148317692836
1499369128214,-0.12127870603494317,0.5917448691538869,0.7663080796520942
1499369128230,-0.14666971847104593,0.5864957656214234,0.7753414206149385
1499369128246,-0.161440451667048,0.5956511787594412,0.7854734111543449
1499369128262,-0.1610742351415273,0.607370107576104,0.7936522468909741
1499369128278,-0.15912108033875016,0.611642633707179,0.7953612573434041
1499369128294,-0.14740215152208735,0.609933623254749,0.7943846799420156
1499369128310,-0.1400778210116731,0.5993133440146483,0.792553597314412
1499369128326,-0.13934538796063167,0.5847867551689934,0.7877927824826427
1499369128342,-0.1421530479896238,0.5852750438696877,0.796826123445487
1499369128358,-0.11371023117418178,0.6006561379415576,0.7893797207598992
1499369128374,-0.16632333867399085,0.5939421683070112,0.7931639581902798
1499369128390,-0.19586480506599546,0.5982146944380862,0.815014877546349
1499369128406,-0.16559090562294942,0.6093232623788811,0.8169680323491262
1499369128422,-0.1290913252460517,0.601388570992599,0.8161135271229112
1499369128438,-0.09527733272297256,0.5766079194323641,0.8181887541008619
1499369128454,-0.08953994048981473,0.5687953002212556,0.8104982070649269
1499369128470,-0.1030899519340811,0.574654764629587,0.796826123445487
1499369128486,-0.12433051041428245,0.5947966735332262,0.7920653086137177
1499369128502,-0.13910124361028453,0.6118867780575261,0.7868162050812542
1499369128518,-0.14459449149309522,0.6101777676050961,0.778027008468757
1499369128534,-0.13873502708476382,0.5896696421759362,0.7732661936369878
1499369128550,-0.1354390783550774,0.5799038681620505,0.7760738536659799
1499369128566,-0.13775844968337525,0.5858854047455555,0.7821774624246585
1499369128582,-0.14752422369726093,0.5987029831387805,0.7852292668039977
1499369128598,-0.16083009079118016,0.6101777676050961,0.7860837720302127
1499369128614,-0.1564354924849316,0.6127412832837411,0.793408102540627
1499369128630,-0.14630350194552522,0.6051728084229797,0.7982909895475698
1499369128646,-0.13580529488059812,0.5929655909056226,0.789135576409552
1499369128662,-0.12274357213702602,0.5872281986724648,0.791699092088197
1499369128678,-0.1240863660639353,0.5877164873731591,0.7979247730220491
1499369128694,-0.13226520180056456,0.5880827038986798,0.8003662165255205
1499369128710,-0.1228656443121996,0.5894254978255891,0.8009765774013884
1499369128726,-0.130434119172961,0.5879606317235062,0.8048828870069427
1499369128742,-0.1464255741206988,0.5889372091248948,0.8076905470359348
1499369128758,-0.15399404898146019,0.594552529182879,0.8048828870069427
1499369128774,-0.15130846112764162,0.6068818188754097,0.7927977416647591
1499369128790,-0.15533684290836947,0.5965056839856562,0.7754634927901121
1499369128806,-0.16205081254291587,0.5927214465552755,0.7813229571984435
1499369128822,-0.12811474784466315,0.5950408178835733,0.784008545052262
1499369128838,-0.11566338597695891,0.5930876630807962,0.7896238651102463
1499369128854,-0.11029221026932179,0.5819790951400012,0.804516670481422
1499369128870,-0.11798275730525676,0.5769741359578848,0.8052491035324634
1499369128886,-0.11700617990386819,0.5821011673151748,0.8026855878538184
1499369128902,-0.127870603494316,0.5930876630807962,0.8068360418097198
1499369128918,-0.14056610971236738,0.602243076218814,0.8054932478828105
1499369128934,-0.14618142977035165,0.6021210040436404,0.794262607766842
1499369128950,-0.13849088273441668,0.5882047760738534,0.7852292668039977
1499369128966,-0.1447165636682688,0.5833218890669105,0.7825436789501792
1499369128982,-0.15387197680628661,0.5966277561608297,0.7835202563515677
1499369128998,-0.16083009079118016,0.6143282215609975,0.7879148546578163
1499369129014,-0.1589990081635766,0.6111543450064847,0.7873044937819484
1499369129030,-0.1426413366903181,0.5938200961318376,0.7779049362935835
1499369129046,-0.12176699473563746,0.5828336003662162,0.7809567406729228
1499369129062,-0.11309987029831392,0.5701380941481649,0.7719233997100785
1499369129078,-0.16119630731670087,0.5733119707026777,0.8070801861600669
1499369129094,-0.14166475928892952,0.5967498283360033,0.8180666819256883
1499369129110,-0.12726024261844815,0.6001678492408633,0.8124513618677041
1499369129126,-0.11944762340733961,0.5877164873731591,0.8245365072098876
1499369129142,-0.12042420080872818,0.5744106202792398,0.8131837949187455
1499369129158,-0.11639581902800034,0.5707484550240327,0.8025635156786448
1499369129174,-0.13482871747920955,0.5895475700007626,0.7980468451972227
1499369129190,-0.14691386282139307,0.6023651483939876,0.794262607766842
1499369129206,-0.14227512016479738,0.5990691996643012,0.789990081635767
1499369129222,-0.13568322270542454,0.5886930647745476,0.786572060730907
1499369129238,-0.1442282749675745,0.5759975585564963,0.7803463797970549
1499369129254,-0.15838864728770874,0.5850308995193405,0.7824216067750056
1499369129270,-0.15484855420767518,0.6010223544670783,0.7849851224536506
1499369129286,-0.14532692454413665,0.6078583962767983,0.7880369268329899
1499369129302,-0.1455710688944838,0.5957732509346148,0.7829098954756999
1499369129318,-0.14654764629587236,0.5795376516365298,0.7898680094605934
1499369129334,-0.1228656443121996,0.5885709925993741,0.7825436789501792
1499369129350,-0.1517967498283359,0.5731898985275041,0.798535133897917
1499369129366,-0.17633325703822367,0.5863736934462498,0.8179446097505148
1499369129382,-0.13690394445716025,0.6015106431677726,0.8177004654001676
1499369129398,-0.12982375829709314,0.591134508278019,0.8240482185091933
1499369129414,-0.12628366521705958,0.5700160219729913,0.818432898451209
1499369129430,-0.11871519035629818,0.5630579079880977,0.8112306401159683
1499369129446,-0.12603952086671244,0.5707484550240327,0.8137941557946133
1499369129462,-0.14288548104066523,0.5895475700007626,0.8106202792401005
1499369129478,-0.13873502708476382,0.5957732509346148,0.8081788357366291
1499369129494,-0.14032196536202024,0.5851529716945141,0.7930418860151063
1499369129510,-0.14581521324483093,0.5767299916075377,0.784863050278477
1499369129526,-0.14959945067521163,0.5781948577096205,0.7809567406729228
1499369129542,-0.15582513160906375,0.5847867551689934,0.7842526894026092
1499369129558,-0.16095216296635373,0.5969939726863505,0.786572060730907
1499369129574,-0.16119630731670087,0.5999237048905162,0.7931639581902798
1499369129590,-0.15252918287937733,0.5946746013580526,0.7996337834744791
1499369129606,-0.13324177920195313,0.5824673838406955,0.798535133897917
1499369129622,-0.128725108720531,0.5742885481040663,0.797680628671702
1499369129638,-0.12945754177157243,0.5727016098268098,0.801953154802777
1499369129654,-0.12713817044327458,0.5819790951400012,0.8051270313572898
1499369129670,-0.1350728618295567,0.5831998168917369,0.8109864957656212
1499369129686,-0.1464255741206988,0.5783169298847941,0.8163576714732583
1499369129702,-0.1480125123979552,0.5807583733882655,0.8200198367284655
1499369129718,-0.14923323414969092,0.5839322499427784,0.8103761348897534
1499369129734,-0.1485008010986495,0.5850308995193405,0.8067139696345462
1499369129750,-0.1459372854200045,0.5871061264972912,0.7975585564965284
1499369129766,-0.14349584191653308,0.5836881055924312,0.7923094529640649
1499369129782,-0.14496070801861594,0.5802700846875712,0.7897459372854199
1499369129798,-0.14166475928892952,0.5811245899137862,0.7851071946288242
1499369129814,-0.14081025406271452,0.5851529716945141,0.789990081635767
1499369129830,-0.14703593499656664,0.5861295490959026,0.7952391851682306
1499369129846,-0.14361791409170666,0.5821011673151748,0.7980468451972227
1499369129862,-0.13946746013580524,0.5805142290379184,0.803662165255207
1499369129878,-0.14532692454413665,0.5834439612420841,0.8047608148317691
1499369129894,-0.14544899671931022,0.5867399099717705,0.8078126192111084
1499369129910,-0.14032196536202024,0.5849088273441669,0.8026855878538184
1499369129926,-0.1325093461509117,0.5810025177386127,0.7947508964675363
1499369129942,-0.14435034714274808,0.5792935072861827,0.7906004425116349
1499369129958,-0.14911116197451735,0.5840543221179519,0.7971923399710077
1499369129974,-0.1455710688944838,0.5867399099717705,0.7953612573434041
1499369129990,-0.14569314106965736,0.5846646829938198,0.7978027008468755
1499369130006,-0.14666971847104593,0.5800259403372241,0.7996337834744791
1499369130022,-0.14166475928892952,0.5790493629358355,0.8050049591821162
1499369130038,-0.1409323262378881,0.581490806439307,0.8162355992980848
1499369130054,-0.1337300679026474,0.5830777447165634,0.8139162279697869
1499369130070,-0.13531700617990383,0.5800259403372241,0.804516670481422
1499369130086,-0.1400778210116731,0.581490806439307,0.8014648661020827
1499369130102,-0.14874494544899663,0.5813687342641334,0.7953612573434041
1499369130118,-0.15619134813458446,0.5841763942931255,0.7980468451972227
1499369130133,-0.15570305943389018,0.5818570229648277,0.7986572060730905
1499369130149,-0.14862287327382306,0.5813687342641334,0.7981689173723963
1499369130165,-0.14398413061722737,0.5856412603952084,0.7957274738689248
1499369130181,-0.13971160448615239,0.5896696421759362,0.7912108033875027
1499369130197,-0.1426413366903181,0.5829556725413898,0.7859616998550392
1499369130213,-0.14349584191653308,0.5792935072861827,0.7902342259861141
1499369130229,-0.13958953231097881,0.577218280308232,0.7969481956206605
1499369130245,-0.14703593499656664,0.5808804455634391,0.8053711757076369
1499369130261,-0.1517967498283359,0.5825894560158691,0.8054932478828105
1499369130277,-0.15289539940489805,0.5856412603952084,0.8057373922331577
1499369130293,-0.14618142977035165,0.5838101777676048,0.803662165255207
1499369130309,-0.14618142977035165,0.5818570229648277,0.8014648661020827
1499369130325,-0.12982375829709314,0.574654764629587,0.7910887312123291
1499369130341,-0.12970168612191957,0.5723353933012891,0.7924315251392384
1499369130357,-0.1442282749675745,0.5700160219729913,0.7931639581902798
1499369130373,-0.1589990081635766,0.557564660105287,0.8018310826276034
1499369130389,-0.13958953231097881,0.5604943923094527,0.800244144350347
1499369130405,-0.1502098115510795,0.5756313420309755,0.7957274738689248
1499369130421,-0.14227512016479738,0.566964217593652,0.8037842374303805
1499369130437,-0.1514305333028152,0.5525597009231706,0.8051270313572898
1499369130453,-0.17462424658579367,0.5502403295948728,0.7989013504234377
1499369130469,-0.19830624856946688,0.5551232166018156,0.7978027008468755
1499369130485,-0.22943465323872747,0.5722133211261156,0.7940184634164948
1499369130501,-0.2688639658197909,0.5868619821469441,0.7945067521171891
1499369130517,-0.30060273136491933,0.591989013504234,0.7918211642633706
1499369130533,-0.30475318532082074,0.6050507362478061,0.7923094529640649
1499369130549,-0.28082703898680084,0.5990691996643012,0.7771725032425421
1499369130565,-0.2515297169451438,0.5851529716945141,0.7610589761196307
1499369130581,-0.2276035706111239,0.566964217593652,0.7664301518272678
1499369130597,-0.21564049744411395,0.5653772793163956,0.7885252155336842
1499369130613,-0.20892652780956755,0.567818722819867,0.8029297322041655
1499369130629,-0.2116121156633861,0.563546196688792,0.8058594644083312
1499369130645,-0.22833600366216533,0.5629358358129242,0.8012207217517355
1499369130661,-0.2554360265506981,0.572091248950942,0.8037842374303805
1499369130677,-0.27191577019913016,0.5874723430228119,0.8043945983062484
1499369130693,-0.2167391470206761,0.5762417029068434,0.8124513618677041
1499369130709,-0.13775844968337525,0.5543907835507742,0.8020752269779505
1499369130725,-0.05816739147020655,0.5119096665903715,0.8024414435034712
1499369130741,-0.052063782711528006,0.5265583276112,0.8108644235904476
1499369130757,-0.07635614557106907,0.5442587930113678,0.8277103837644004
1499369130773,-0.09369039444571614,0.47309071488517596,0.9168230716411081
1499369130789,4.272526131074983E-4,0.40302128633554624,0.9679713130388343
1499369130805,0.0634164950026701,0.38825055313954415,0.9329365987640195
1499369130821,0.043030441748683756,0.3998474097810334,0.916578927290761
1499369130837,0.01739528496223386,0.4447699702449075,0.8839856565194175
1499369130853,6.713969634546402E-4,0.4431830319676511,0.8600595101853967
1499369130869,0.0327763790341038,0.4712596322575724,0.8664072632944224
1499369130885,0.06903181506065437,0.47272449835965524,0.8786144808117804
1499369130901,0.0844129091325243,0.47895017929350736,0.8582284275577932
1499369130917,0.0974746318760964,0.4640573739223317,0.8616464484626531
1499369130933,0.11493095292591704,0.460273136491951,0.8755626764324411
1499369130949,0.1281147478446636,0.4564888990615703,0.9091325246051731
1499369130965,0.11065842679484206,0.4758983749141681,0.8961928740367746
1499369130981,0.11102464332036277,0.4822461280231938,0.8662851911192488
1499369130997,0.11688410772869418,0.3997253376058598,0.9026626993209739
1499369131013,0.3327077134355685,0.38873884184023844,0.9685816739147022
1499369131029,0.3209887846189057,0.42279697871366473,0.8783703364614333
1499369131045,0.1911039902342262,0.5210650797283893,0.9601586938277258
1499369131061,0.029480430304417382,0.5600061036087585,0.9729762722209507
1499369131077,0.04522774090180803,0.5770962081330584,0.9325703822384988
1499369131093,0.2348058289463646,0.49994659342336156,0.8849622339208061
1499369131109,0.44293888761730393,0.41559472037842404,0.8098878461890591
1499369131125,0.238101777676051,0.37946135652704704,0.8440680552376589
1499369131141,-0.11102464332036321,0.49372091248950944,0.9385519188220037
1499369131157,-0.07208361943999408,0.6106660563057904,0.9502708476386665
1499369131173,0.08661020828564858,0.6242160677500568,0.9254901960784316
1499369131189,0.123476005188067,0.6275120164797441,0.8816662851911197
1499369131205,0.06146334019989297,0.6019989318684669,0.8443121995880061
1499369131221,0.011291676203555312,0.5855191882200348,0.8258793011367969
1499369131237,-0.053162432288090145,0.5791714351110091,0.7979247730220491
1499369131253,-0.06903181506065481,0.5570763714045928,0.7958495460440984
1499369131269,-0.12213321126115817,0.5010452429999237,0.8125734340428776
1499369131285,-0.2638590066376745,0.4934767681391623,0.7721675440604256
1499369131301,-0.1961089494163426,0.5144731822690165,0.7396963454642558
1499369131317,-0.10809491111619751,0.45587853818570245,0.6701152056153203
1499369131333,-0.03436331731136022,0.3602960250247955,0.6225070572976268
1499369131349,-0.047913328755626594,0.36188296330205194,0.6221408407721061
1499369131365,-0.13116655222400242,0.3070725566491186,0.6355687800411998
1499369131381,-0.2670328831921873,0.2932784008545051,0.6276340886549177
1499369131397,-0.3231860837720304,0.384588387884337,0.5817349507896541
1499369131413,-0.35736629282063026,0.4127870603494319,0.6232394903486682
1499369131429,-0.44037537193865894,0.34967574578469485,0.6879377431906617
1499369131445,-0.3701838712138552,0.32745860990310494,0.7597161821927214
1499369131461,-0.28998245212481866,0.28448920424200796,0.8015869382772562
1499369131477,-0.23041123064011604,0.21515220874341967,0.8941176470588239
1499369131493,-0.12237735561150531,0.16473640039673487,0.9551537346456094
1499369131509,-0.008117799649042468,0.16937514305333057,1.0597695887693597
1499369131525,1.831082627603564E-4,0.2007476920729383,1.1227588311589223
1499369131541,0.011413748378728883,0.19562066071564832,1.1604791332875566
1499369131557,-0.0039673456931410556,0.21612878614480824,1.1741512169069965
1499369131573,-0.05938811322194226,0.1928130006866562,1.2025940337224386
1499369131589,-0.05767910276951227,0.15558098725871705,1.1818417639429315
1499369131605,-0.024841687647821686,0.1259174486915393,1.1333791103990238
1499369131621,-0.02679484245059882,0.10638590066376707,1.0635538261997404
1499369131637,-0.3383230334935532,0.14642557412069923,1.1491264209964145
1499369131653,-0.04962233920805659,0.22320897230487535,1.0503700312809947
1499369131669,-0.010193026626993174,0.207095445181964,1.0093537804226749
1499369131685,-6.103608758678547E-5,0.19305714503700333,1.0788128480964367
1499369131701,0.11358815899900776,0.16986343175402485,1.1627985046158544
1499369131717,0.05877775234607441,0.203677424277104,1.1147020675974666
1499369131733,-0.050720988784618726,0.2654459449149309,1.0210727092393377
1499369131749,-0.10736247806515609,0.2743572137026016,1.0091096360723277
1499369131765,-0.06329442282749698,0.25799954222934307,0.9739528496223393
1499369131781,-0.03216601815823594,0.2208896009765775,0.9270771343556881
1499369131797,-0.027405203326466676,0.1856107423514155,0.954421301594568
1499369131813,-0.056946669718470844,0.1620508125429163,1.0059357595178149
1499369131829,-0.0715953307392998,0.14557106889448423,1.0470740825513083
1499369131845,-0.12274357213702602,0.16327153429465202,1.0082551308461127
1499369131861,-0.0875867856870376,0.09161516746776499,1.1282520790417339
1499369131877,-0.032410162508583085,0.0575570305943387,1.0398718242160676
1499369131893,-0.16217288471808944,0.09137102311741785,1.0691691462577246
1499369131909,-0.23822384985122458,0.1591210803387506,1.0617227435721368
1499369131925,-0.31866941329060827,0.09552147707331926,1.0157015335317006
1499369131941,-0.15716792553597303,0.02020294499122599,1.0509803921568626
1499369131957,0.0747692072938122,-0.07672236209658978,1.059647516594186
1499369131973,0.03717097734035235,-0.2573891813534752,1.2643625543602655
1499369131989,-0.10199130235751896,-0.2528725108720531,1.2796215762569618
1499369132005,-0.24957656214236668,-0.206240939955749,1.2483710994125277
1499369132021,-0.44538033112077535,-0.08160524910353262,1.2379949645227741
1499369132037,-0.4066834515907529,0.01495384145876244,1.1442435339894717
1499369132053,-0.3820248722056916,0.13739223315785498,0.9722438391699093
1499369132069,-0.33185320820935393,0.21441977569237824,0.8225833524071104
1499369132085,-0.38764019226367585,0.3028000305180436,0.6942854962996874
1499369132101,-0.19879453727016116,0.3612726024261841,0.5640344853894863
1499369132117,-0.0424200808728159,0.3494316014343477,0.3809262226291299
1499369132133,-0.17926298924238937,0.33954375524528846,0.3540703440909434
1499369132149,-0.388738841840238,0.2621499961852445,0.4721141374837874
1499369132165,-0.5849088273441674,0.17901884489204267,0.6592507820248725
1499369132181,-0.7118638895246816,0.07891966124971361,0.824414435034714
1499369132197,-0.6448462653543907,0.04986648355840373,0.834668497749294
1499369132213,-0.6107881284809644,0.07403677424277078,0.7971923399710077
1499369132229,-0.6038300144960709,-0.0432745860990309,0.8985122453650725
1499369132245,-0.8783703364614328,-0.059754329747462975,1.1687800411993594
1499369132261,-0.8406500343327994,-0.15875486381322945,1.2731517509727626
1499369132277,-0.3663996337834745,-0.07464713511863907,0.9490501258869308
1499369132293,-0.43097581445029354,-0.035217822537575216,0.9687037460898758
1499369132309,-0.3618829633020524,-0.12372014953841459,0.983718623636225
1499369132325,-0.3328297856107425,-0.055970092317082276,0.8909437705043111
1499369132341,-0.41278706034943147,-0.05877775234607441,0.8961928740367746
1499369132357,-0.4459906919966432,0.013488975356679589,0.9479514763103687
1499369132373,-0.3074387731746393,0.002746623941405346,0.9070572976272224
1499369132389,-0.12054627298390175,-0.06683451590753053,0.8853284504463268
1499369132405,-0.10162508583199825,-0.03839169909208806,0.9799343862058443
1499369132421,-0.1862211032272829,0.024841687647821686,0.9850614175631343
1499369132437,-0.23797970550087744,0.05352864881361086,0.9519798580910965
1499369132453,-0.21722743572137038,0.09173723964293856,0.9579613946746015
1499369132469,-0.23834592202639815,0.1541161211566342,0.9989776455329213
1499369132485,-0.19427786678873904,0.14032196536202068,1.005325398641947
1499369132501,-0.08697642481116974,0.09356832227054213,1.050003814755474
1499369132517,-0.04876783398184159,0.08380254825665645,0.9994659342336156
1499369132533,-0.12799267566948958,0.20672922865644328,0.9612573434042879
1499369132549,-0.23370717936980245,0.3062180514229036,0.9601586938277258
1499369132565,-0.17938506141756294,0.2962081330586708,1.0426794842450597
1499369132581,-0.21820401312275894,0.27069504844739445,1.0644083314259554
1499369132597,-0.12945754177157243,0.2649576562142366,1.0479285877775233
1499369132613,-0.09942778667887398,0.2880292973220415,1.0310826276035705
1499369132629,-0.08355840390630975,0.3402761882963299,1.0076447699702449
1499369132645,-0.043030441748683756,0.34723430228122343,1.0657511253528646
1499369132661,-0.09210345616845972,0.3318532082093535,1.0178988326848248
1499369132677,-0.08355840390630975,0.3115892271305407,0.9855497062638285
1499369132693,0.11602960250247918,0.22272068360418107,0.9015640497444117
1499369132709,0.09515526054779855,0.18756389715419264,0.9337911039902345
1499369132725,0.09637598229953426,0.169253070878157,1.0076447699702449
1499369132741,0.13922331578545855,0.10931563286793278,0.9774929427023729
1499369132757,0.11895933470664488,0.1276264591439693,0.9870145723659114
1499369132773,0.06317235065232296,0.11920347905699202,0.9868925001907378
1499369132789,0.08783093003738429,0.10736247806515564,0.9362325474937059
1499369132805,0.05914396887159512,0.13592736705577213,0.9500267032883194
1499369132821,-0.03338673990997165,0.2129549095902954,0.9596704051270315
1499369132837,-0.11944762340733961,0.25262836652170595,1.0065461203936827
1499369132853,-0.054505226214999425,0.237247272449836,1.0439002059967954
1499369132869,0.0613412680247194,0.19586480506599546,1.0708781567101546
1499369132885,0.011413748378728883,0.237247272449836,1.0634317540245668
1499369132901,-0.028747997253375956,0.29132524605172794,1.0851606012054624
1499369132917,-0.01995880064087885,0.32867933165484065,1.0816205081254289
1499369132933,0.018249790188448856,0.3451590753032727,1.071610589761196
1499369132949,0.03143358510719452,0.37897306782635276,1.0064240482185092
1499369132965,0.014099336232547444,0.41974517433432545,0.9972686350804914
1499369132981,0.029968719005111666,0.44538033112077535,0.9378194857709623
1499369132997,0.05487144274052014,0.44867627985046177,0.8938735027084768
1499369133013,0.07537956816968006,0.4446478980697339,0.8538338292515446
1499369133029,0.11725032425421489,0.4035095750362405,0.8189211871519033
1499369133045,0.1759670405127034,0.388860914015412,0.8421149004348818
1499369133061,0.21576256961928753,0.34247348744945416,0.8212405584802012
1499369133077,0.14471656366826924,0.32574959945067494,0.8533455405508503
1499369133093,0.26190585183489734,0.3230640115968564,0.8474860761425189
1499369133109,0.29974822613870433,0.2843671320668344,0.8107423514152741
1499369133125,0.2999923704890515,0.23700312809948887,0.795971618219272
1499369133141,0.2957198443579765,0.20379949645227757,0.8234378576333254
1499369133157,0.31940184634164925,0.1499656672007328,0.8495613031204696
1499369133173,0.5846646829938198,0.10345616845960137,0.872510872053101
1499369133189,0.5796597238117034,0.11029221026932134,0.8859388113221947
1499369133205,0.5036087586785687,0.16217288471808988,0.892652780956741
1499369133221,0.4795605401693752,0.16009765774013918,0.8305180437933926
1499369133237,0.5392538338292514,0.12628366521706003,0.759838254367895
1499369133253,0.5950408178835733,0.1289692530708786,0.7014877546349281
1499369133269,0.6780498970016025,0.07782101167315147,0.647165636682689
1499369133285,0.7323720149538415,0.03668268863965807,0.5565880827038985
1499369133301,0.6669413290608075,0.05865568017090084,0.492133974212253
1499369133317,0.5819790951400012,0.09222552834363285,0.4657663843747617
1499369133333,0.7473868925001907,0.0919813839932857,0.46308079652094314
1499369133349,0.9059586480506603,0.06378271152819082,0.4350041962310218
1499369133365,0.8186770428015562,0.05548180361638799,0.4184023804074162
1499369133381,0.7915770199130234,0.06659037155718295,0.3892271305409327
1499369133397,0.852857251850156,0.0327763790341038,0.38153658350499775
1499369133413,0.8452887769893946,0.042786297398336615,0.4119325551232169
1499369133429,0.8594491493095289,0.04571602960250232,0.46637674525062955
1499369133445,0.946730754558633,0.10052643625543567,0.4182803082322426
1499369133461,0.9997100785839628,0.11187914854657777,0.32111085679407925
1499369133477,0.98970016021973,0.11725032425421489,0.29303425650415793
1499369133493,0.976882581826505,0.10809491111619707,0.2855878538185701
1499369133509,1.0769817654688332,0.07489127946898577,0.2263828488593882
1499369133525,1.0788128480964367,0.05145342183566015,0.1549706263828492
1499369133541,1.0192416266117341,0.05682459754329727,0.10492103456168422
1499369133557,1.013015945677882,0.07867551689936647,0.06756694895857152
1499369133573,1.0669718471046004,0.07306019684138221,0.07708857862211005
1499369133589,1.1463187609674224,0.06207370107576082,0.09991607537956781
1499369133605,1.1182421606775002,0.05389486533913157,0.06182955672541368
1499369133621,1.1200732433051037,0.013488975356679589,-0.009460593575951748
1499369133637,1.2273746852826735,0.012878614480811734,-0.06146334019989297
1499369133653,1.2185854886701764,0.08905165178912,-0.03143358510719452
1499369133669,1.0302281223773555,0.1671778439002063,0.034851606012054503
1499369133685,0.8921644922560468,0.19049362935835834,0.033875028610665936
1499369133701,0.9163347829404138,0.19928282597085545,0.032410162508583085
1499369133717,0.9269550621805145,0.20392156862745114,0.013855191882200302
1499369133733,0.9809109636072328,0.1948882276646069,-0.008606088349736751
1499369133749,1.0196078431372548,0.20477607385366614,-0.004699778744182481
1499369133765,1.0017853055619135,0.2234531166552225,0.008850232700083893
1499369133781,0.9422140840772109,0.23199816891737246,0.02423132677195383
1499369133797,0.9396505683985659,0.2368810559243153,0.029846646829938095
1499369133813,0.9411154345006487,0.21283283741512182,0.011535820553902454
1499369133829,0.8820325017166404,0.17401388570992626,0.03289845120927737
1499369133845,0.9007095445181967,0.17279316395819055,0.03289845120927737
1499369133861,0.9532005798428322,0.1911039902342262,-0.0365606164644845
1499369133877,0.9516136415655758,0.20306706340123615,-0.05499351491569371
1499369133893,0.9190203707942324,0.17108415350576056,-0.0745250629434655
1499369133909,0.9569848172732129,0.18170443274586123,-0.10540932326237895
1499369133925,0.9804226749065386,0.17450217441062055,-0.05023270008392444
1499369133941,0.9684596017395286,0.18158236057068766,-0.04876783398184159
1499369133957,0.9812771801327536,0.19305714503700333,0.003479056992446772
1499369133973,0.9748073548485543,0.1906157015335319,0.017883573662928143
1499369133989,0.9774929427023729,0.21637293049515538,0.013122758831158876
1499369134005,0.938185702296483,0.21393148699168396,0.03204394598306237
1499369134021,0.9414816510261694,0.18927290760662263,0.05426108186465228
1499369134037,0.9932402532997635,0.1843900205996798,0.019348439765010994
1499369134053,1.023514152742809,0.17792019531548053,-0.01239032578011745
1499369134069,1.0133821622034027,0.1843900205996798,-0.031311512932020946
1499369134085,0.9956816968032349,0.1969634546425576,-0.04632639047837017
1499369134101,0.97261005569543,0.2146639200427254,-0.06182955672541368
1499369134117,0.9582055390249486,0.19171435111009405,-0.044251163500419466
1499369134133,0.9472190432593273,0.1671778439002063,-0.02923628595407024
1499369134149,0.9628442816815443,0.16412603952086702,-0.016540779736018862
1499369134165,0.970901045243,0.17816433966582768,-0.016662851911192433
1499369134181,0.9733424887464714,0.18744182497901907,-4.272526131074983E-4
1499369134197,0.9704127565423057,0.1957427328908219,-0.004943923094529623
1499369134213,0.9799343862058443,0.206240939955749,-0.009094377050431035
1499369134229,0.9770046540016786,0.1923247119859619,-0.010315098802166744
1499369134245,0.9673609521629665,0.1965972381170369,-0.022156099794003126
1499369134261,0.9678492408636608,0.16498054474708201,-0.02264438849469741
1499369134277,0.9684596017395286,0.17926298924238981,-0.007507438773174613
1499369134293,0.9810330357824064,0.1876859693293662,0.0036011291676203427
1499369134309,0.9770046540016786,0.18890669108110192,0.013244831006332447
1499369134325,0.971755550469215,0.20648508430609613,0.01605249103532458
1499369134341,0.9937285420004578,0.20233463035019472,0.007019150072480329
1499369134357,1.011306935225452,0.19330128938735047,-0.006652933546959616
1499369134373,0.9866483558403907,0.17145037003128127,-0.029968719005111666
1499369134389,0.9634546425574122,0.17022964827954556,-0.03668268863965807
1499369134405,0.9463645380331123,0.17828641184100125,-0.013855191882200302
1499369134421,0.9495384145876251,0.18194857709620837,0.003479056992446772
1499369134437,1.0011749446860456,0.201113908598459,0.010070954451819603
1499369134453,1.026688029297322,0.1998931868467233,0.011902037079423167
1499369134469,1.0089875638971542,0.1986724650949876,0.0039673456931410556
1499369134485,0.9639429312581065,0.1818265049210348,0.0021362630655374915
1499369134501,0.932204165712978,0.17584496833752983,-0.01605249103532458
1499369134517,0.9386739909971773,0.17621118486305054,-0.04632639047837017
1499369134533,0.9490501258869308,0.18170443274586123,-0.05548180361638799
1499369134549,0.9678492408636608,0.19159227893492048,-0.058289463645380124
1499369134565,0.9824979018844893,0.19427786678873904,-0.044251163500419466
1499369134581,0.9987335011825742,0.19037155718318477,-0.0252079041733424
1499369134597,1.0088654917219806,0.19366750591287119,-0.01995880064087885
1499369134613,0.9784695201037614,0.19305714503700333,-0.02655069810025168
1499369134629,0.9508812085145344,0.19037155718318477,-0.03961242084382377
1499369134645,0.9290302891584652,0.20257877470054186,-0.026184481574730967
1499369134661,0.9278095674067295,0.202822919050889,0.005554283970397478
1499369134677,0.9606469825284201,0.19537651636530118,0.005310139620050336
1499369134693,0.9955596246280614,0.19415579461356547,0.008239871824216038
1499369134709,1.0086213473716334,0.1902494850080112,0.013855191882200302
1499369134725,0.9898222323949035,0.19293507286182976,0.011535820553902454
1499369134741,0.970901045243,0.170962081330587,0.011413748378728883
1499369134757,0.9505149919890137,0.1776760509651334,-0.005065995269703194
1499369134773,0.9569848172732129,0.18109407186999338,-0.0109254596780346
1499369134789,0.9715114061188679,0.18756389715419264,-0.0327763790341038
1499369134805,0.9730983443961243,0.20355535210193043,-0.04840161745632088
1499369134821,0.9749294270237279,0.19562066071564832,-0.050720988784618726
1499369134837,0.9695582513160907,0.19037155718318477,-0.04510566872663446
1499369134853,0.9585717555504694,0.1864652475776305,-0.02801556420233453
1499369134869,0.970901045243,0.19305714503700333,-0.03289845120927737
1499369134885,0.98115510795758,0.17987335011825767,-0.017883573662928143
1499369134901,0.9823758297093157,0.18536659800106836,-0.015564202334630295
1499369134917,0.9693141069657436,0.1725490196078434,-0.015686274509803866
1499369134933,0.9723659113450829,0.20001525902189687,-0.007995727473868897
1499369134949,0.9615014877546351,0.19134813458457334,-0.006652933546959616
1499369134965,0.9812771801327536,0.2100251773861297,0.020691233691920274
1499369134981,1.032669565880827,0.20343327992675686,0.045471885252155175
1499369134997,1.031204699778744,0.16656748302433844,0.03802548256656735
1499369135013,0.9912870984969864,0.14813458457312922,0.04058899824521234
1499369135029,0.9103532463569088,0.16778820477607415,0.0604867627985044
1499369135045,0.9247577630273902,0.20856031128404684,0.05145342183566015
1499369135061,0.9926298924238957,0.2558022430762188,0.006408789196612474
1499369135077,0.9479514763103687,0.2800946059357594,-0.01751735713740743
1499369135093,0.930495155260548,0.19562066071564832,-0.024963759822995257
1499369135109,0.9916533150225071,0.17914091706721624,-0.08624399176012831
1499369135125,1.0088654917219806,0.19671931029221046,-0.0888075074387733
1499369135141,0.99140917067216,0.1814602883955141,-0.07611200122072193
1499369135157,0.9718776226443886,0.19012741283283763,-0.0669565880827041
1499369135173,0.9545433737697415,0.19842832074464045,-0.04107728694590662
1499369135189,0.9517357137407494,0.20697337300679042,-0.03070115205615309
1499369135205,0.9351338979171437,0.21222247653925397,-0.026306553749904538
1499369135221,0.909742885481041,0.2284580758373389,-0.013244831006332447
1499369135237,0.9068131532768753,0.21832608529793252,-0.006897077897306758
1499369135253,0.9461203936827651,0.201113908598459,-0.01873807888914314
1499369135269,0.9956816968032349,0.1809719996948198,-0.04962233920805659
1499369135285,0.9997100785839628,0.17730983443961268,-0.046814679179064456
1499369135301,0.9903105210955978,0.18915083543144906,-0.03680476081483164
1499369135317,0.9866483558403907,0.1843900205996798,-0.003356984817273201
1499369135333,0.9610131990539408,0.16021972991531275,0.020813305867093845
1499369135349,0.9735866330968186,0.18573281452658907,0.03216601815823594
1499369135365,1.006179903868162,0.19562066071564832,0.04461738002594018
1499369135381,1.0192416266117341,0.17230487525749627,0.05120927748531301
1499369135397,1.0159456778820477,0.14227512016479782,0.07586785687037434
1499369135413,0.9787136644541086,0.14422827496757495,0.1012588693064771
1499369135429,0.9619897764553293,0.13482871747921,0.15216296635385707
1499369135445,0.9844510566872664,0.1582665751125356,0.1919584954604412
1499369135461,0.9778591592278936,0.18133821622034052,0.21234454871442754
1499369135477,0.9469748989089801,0.20086976424811187,0.19391165026321833
1499369135493,0.9429465171282523,0.20477607385366614,0.16156252384222203
1499369135509,0.9789578088044557,0.19513237201495404,0.11737239642938846
1499369135525,0.9735866330968186,0.1776760509651334,0.09600976577401354
1499369135541,0.9353780422674909,0.17206073090714913,0.10223544670786566
1499369135557,0.9226825360494395,0.18829633020523406,0.1272602426184486
1499369135573,0.9301289387350273,0.20477607385366614,0.18451209277485336
1499369135589,0.9505149919890137,0.18536659800106836,0.14166475928892996
1499369135605,0.9418478675516901,0.16437018387121416,0.12921339742122573
1499369135621,0.9580834668497751,0.17364766918440555,0.15008773937590636
1499369135637,0.9712672617685207,0.18377965972381194,0.14496070801861638
1499369135653,0.9754177157244222,0.18341344319829123,0.14923323414969136
1499369135669,0.9690699626153965,0.18976119630731692,0.13482871747921
1499369135685,0.9694361791409172,0.18536659800106836,0.11236743724727205
1499369135701,0.9650415808346686,0.18976119630731692,0.09234760051880642
1499369135717,0.9654077973601893,0.1809719996948198,0.08197146562905289
1499369135733,0.9809109636072328,0.15277332722972492,0.09320210574502141
1499369135749,0.9722438391699093,0.1528953994048985,0.05999847409781012
1499369135765,0.9696803234912643,0.19183642328526762,0.059754329747462975
1499369135781,0.9643091477836272,0.19415579461356547,0.05767910276951227
1499369135797,0.9796902418554971,0.18988326848249049,0.04632639047837017
1499369135813,1.0030060273136492,0.18927290760662263,0.04876783398184159
1499369135829,1.0182650492103456,0.18915083543144906,0.05658045319295013
1499369135845,1.0136263065537499,0.20636301213092256,0.06353856717784367
1499369135861,0.9876249332417792,0.21393148699168396,0.06585793850614152
1499369135877,0.9650415808346686,0.2083161669336997,0.07342641336690292
1499369135893,0.9623559929808501,0.2057526512550547,0.07403677424277078
1499369135909,0.9308613717860688,0.2205233844510568,0.05169756618600729
1499369135925,0.9494163424124515,0.24176394293125814,0.03167772945754166
1499369135941,0.9459983215075916,0.24078736552986957,0.01361104753185316
1499369135957,0.952712291142138,0.24029907682917528,0.0018921187151903496
1499369135973,0.9463645380331123,0.24457160296025027,-0.005065995269703194
1499369135989,0.9541771572442208,0.22491798275730535,-0.028870069428549527
1499369136005,0.9577172503242544,0.22504005493247892,-0.03924620431830306
1499369136021,0.9516136415655758,0.2410315098802167,-0.049378194857709445
1499369136037,0.9434348058289466,0.26190585183489734,-0.03680476081483164
1499369136053,0.9534447241931794,0.2590981918059052,-0.026184481574730967
1499369136069,0.9627222095063708,0.2667887388418402,-0.03961242084382377
1499369136085,0.9781033035782407,0.25140764476997024,-0.03533989471274879
1499369136101,0.9586938277256429,0.23126573586633103,-0.03045700770580595
1499369136117,0.9461203936827651,0.24921034561684596,-0.02386511024643312
1499369136133,0.9560082398718244,0.28632028686961153,-0.022034027618829555
1499369136149,0.9575951781490808,0.27362478065156015,0.0022583352407110624
1499369136165,0.9427023727779051,0.2594644083314259,-0.003356984817273201
1499369136181,0.9435568780041201,0.2623941405355916,-0.00323491264209963
1499369136197,0.9212176699473567,0.2611734187838559,-0.005188067444876765
1499369136213,0.9210955977721831,0.2565346761272602,-0.0026245517662317752
1499369136229,0.9394064240482187,0.2477454795147631,-3.0518043793392735E-4
1499369136245,0.9561303120469979,0.23907835507743957,-0.008850232700083893
1499369136261,0.9677271686884872,0.24786755168993668,-0.02020294499122599
1499369136277,0.9590600442511636,0.2532387273975738,-0.020447089341573133
1499369136293,0.9575951781490808,0.2553139543755245,-0.015686274509803866
1499369136309,0.9687037460898758,0.25970855268177306,-0.021911955443655984
1499369136325,0.9617456321049822,0.25848783093003735,-0.019714656290531707
1499369136341,0.9656519417105365,0.24628061341268026,-0.009460593575951748
1499369136357,0.9651636530098422,0.23285267414358746,-0.013122758831158876
1499369136373,0.9644312199588008,0.2339513237201496,-0.01641870756084529
1499369136389,0.9556420233463037,0.24469367513542384,-0.019836728465705278
1499369136405,0.9558861676966508,0.2558022430762188,-0.020691233691920274
1499369136421,0.9583276112001222,0.25812161440451664,-0.01739528496223386
1499369136437,0.9514915693904022,0.24872205691615168,-0.00323491264209963
1499369136453,0.9673609521629665,0.24542610818646526,-0.005920500495918191
1499369136469,0.9682154573891815,0.24505989166094455,-0.012146181429770309
1499369136485,0.9621118486305029,0.24786755168993668,-0.015075913633936011
1499369136501,0.9547875181200887,0.2499427786678874,-0.011413748378728883
1499369136517,0.9575951781490808,0.24884412909132525,-0.008728160524910322
1499369136533,0.9479514763103687,0.24884412909132525,-0.003479056992446772
1499369136549,0.9452658884565501,0.2558022430762188,-0.008972304875257464
1499369136565,0.939894712748913,0.25506981002517737,-0.015808346684977437
1499369136581,0.9400167849240866,0.24798962386511025,-0.013244831006332447
1499369136597,0.9447775997558558,0.24713511863889526,-0.01739528496223386
1499369136613,0.9532005798428322,0.24078736552986957,-0.015075913633936011
1499369136629,0.96748302433814,0.23529411764705888,-0.016906996261539575
1499369136645,0.9678492408636608,0.23370717936980245,-0.009338521400778177
1499369136661,0.9752956435492486,0.24078736552986957,-0.00970473792629889
1499369136677,0.9867704280155642,0.24493781948577098,-0.01361104753185316
1499369136693,0.9851834897383078,0.24811169604028382,-0.013977264057373873
1499369136709,0.96919203479057,0.24347295338368813,-0.0037232013427939137
1499369136725,0.9660181582360572,0.24261844815747313,-0.003112840466926059
1499369136741,0.9529564354924851,0.22735942626077676,-0.0023804074158846333
1499369136757,0.9529564354924851,0.24408331425955598,-0.007385366598001042
1499369136773,0.9623559929808501,0.24640268558785383,-0.008728160524910322
1499369136789,0.9617456321049822,0.24054322117952243,-0.003356984817273201
1499369136805,0.9669947356374458,0.2427405203326467,-0.002990768291752488
1499369136821,0.9563744563973451,0.2444495307850767,-0.003112840466926059
1499369136837,0.9533226520180058,0.24676890211337454,-0.01483176928358887
1499369136853,0.9503929198138401,0.23968871595330743,-0.0109254596780346
1499369136869,0.9556420233463037,0.243228809033341,-0.010437170977340315
1499369136885,0.9600366216525522,0.2435950255588617,-0.009338521400778177
1499369136901,0.9636987869077593,0.23749141680018315,-0.003356984817273201
1499369136917,0.9619897764553293,0.23700312809948887,-0.0012817578393224949
1499369136933,0.9596704051270315,0.24347295338368813,-6.713969634546402E-4
1499369136949,0.9694361791409172,0.2435950255588617,-0.0071412222476539
1499369136965,0.9661402304112308,0.23871213855191886,-0.004699778744182481
1499369136981,0.9652857251850158,0.24786755168993668,-0.009460593575951748
1499369136997,0.96748302433814,0.2444495307850767,-0.008850232700083893
1499369137013,0.9658960860608836,0.23993286030365457,-0.009948882276646032
1499369137029,0.9606469825284201,0.23907835507743957,-0.005310139620050336
1499369137045,0.9626001373311972,0.24298466468299385,-0.006775005722133187
1499369137061,0.9658960860608836,0.23700312809948887,-0.00970473792629889
1499369137077,0.9578393224994279,0.23956664377813386,-0.008728160524910322
1499369137093,0.9564965285725187,0.24164187075608456,-0.008117799649042468
1499369137109,0.9542992294193944,0.23968871595330743,-0.008606088349736751
1499369137125,0.96919203479057,0.24750133516441597,-0.015930418860151008
1499369137141,0.9641870756084536,0.2435950255588617,-0.006652933546959616
1499369137157,0.9494163424124515,0.22198825055313964,-0.00982681010147246
1499369137173,0.9522240024414437,0.24518196383611812,6.713969634546402E-4
1499369137189,0.9662623025864043,0.24664682993820097,0.0025024795910582043
