Timestamp (ms),Gyro X (°/s),Gyro Y (°/s),Gyro Z (°/s)
1499369110808,0.8239871824216607,3.0212863355459376,2.8381780727854675
1499369110824,-0.8239871824216607,3.2043945983061803,0.3967345693140487
1499369110840,-2.227817196917613,3.5095750362402214,-1.1291676203554744
1499369110856,-2.7771419851987957,3.5095750362402214,-0.8850232700083325
1499369110872,-3.997863736934505,2.3498893720911838,0.8239871824216607
1499369110888,-6.927595941100208,3.570611123826893,1.983672846570471
1499369110904,-14.80125123979542,12.481879911497572,0.15259021896690683
1499369110920,-27.98504615854108,16.632333867398984,-1.2512397955290453
1499369110936,-39.76501106279102,18.036163881895163,-1.983672846570471
1499369110952,-39.03257801174959,26.092927443350845,-6.134126802471883
1499369110968,-35.24834058136889,32.257572289616064,-12.359807736324
1499369110984,-38.60532539864198,42.633707179369594,-16.44922560463874
1499369111000,-46.72312504768456,57.83169298847906,-19.9893186846723
1499369111016,-52.155336842908355,77.54634927901134,-22.247653925383247
1499369111032,-51.85015640497454,91.15739681086461,-22.003509575036105
1499369111048,-49.469748989089794,95.18577859159222,-19.501029983978015
1499369111064,-44.464789806973386,93.29365987640222,-17.60891126878755
1499369111080,-32.07446402685605,76.20355535210228,-19.9282825970854
1499369111096,-21.087968261234437,49.16456855115575,-19.01274128328373
1499369111112,-14.007782101167322,22.919050888838,-16.2050812542916
1499369111128,-12.115663385976859,-3.0823224231326094,-3.570611123826893
1499369111144,-4.974441138323073,-18.89066910811016,11.688410772869474
1499369111160,8.941786831464015,-22.79697871366443,20.05035477225897
1499369111176,24.322880903333953,-26.764324406805372,26.7032883192187
1499369111192,36.65217059586462,-34.149691004806755,28.656443121995835
1499369111208,39.70397497520389,-36.4080262455177,26.459143968871558
1499369111224,37.87289234760033,-32.56275272755033,21.27107652399468
1499369111240,40.1312275883115,-24.13977264057371,15.167467765316132
1499369111256,50.507362478064806,-15.533684290836845,9.369039444571627
1499369111272,63.38597695887711,-9.491111619745197,8.819714656290444
1499369111288,66.010528725109,-11.749446860456146,15.228503852903032
1499369111304,53.68123903257765,-17.60891126878755,19.195849546043974
1499369111320,34.08865491721963,-25.42153047989609,15.716792553597315
1499369111336,19.80621042191183,-30.060273136491787,8.941786831464015
1499369111352,16.388189517051842,-23.468375677118956,3.0823224231326094
1499369111368,17.975127794308264,-13.336385137712568,-1.1291676203554744
1499369111384,12.664988174258042,-11.383230334935433,-2.4719615472647547
1499369111400,4.9134050507361735,-8.270389868009488,-2.9602502479590385
1499369111416,-2.288853284504512,-2.8381780727854675,-3.6316472114137923
1499369111432,-6.500343327992596,2.105745021744042,-3.2043945983061803
1499369111448,-3.814755474174035,3.7537193865873633,-1.6174563210497581
1499369111464,-1.739528496223329,2.532997634851654,-2.166781109330941
1499369111480,-1.8005645838102282,-2.227817196917613,-3.0212863355459376
1499369111496,-1.0681315327688026,-4.058899824521177,-1.983672846570471
1499369111512,-1.1902037079423735,-1.983672846570471,-1.8005645838102282
1499369111528,-1.5564202334630863,1.1291676203554744,-3.2043945983061803
1499369111544,0.7019150072480898,1.4953841458761872,-2.655069810025225
1499369111560,2.8992141603723667,0.8850232700083325,-0.7629510948347615
1499369111576,3.0212863355459376,-1.4343480582895154,1.739528496223329
1499369111592,3.1433585107195086,-1.8005645838102282,4.058899824521177
1499369111608,3.692683299000464,0.7629510948347615,4.547188525215461
1499369111624,2.3498893720911838,2.655069810025225,3.875791561760934
1499369111640,1.983672846570471,1.1902037079423735,3.5095750362402214
1499369111656,2.7161058976118966,-1.4343480582895154,2.8381780727854675
1499369111672,3.0212863355459376,-0.8239871824216607,1.8616006713969
1499369111688,3.0212863355459376,3.1433585107195086,1.1902037079423735
1499369111704,1.6784924086366573,4.486152437628789,1.3122758831159445
1499369111720,0.09155413138023505,-2.5940337224383256,4.364080262455218
1499369111736,0.45777065690094787,-6.073090714885211,6.256198977645454
1499369111752,1.6174563210497581,-3.3875028610666504,5.95101853971164
1499369111768,2.288853284504512,0.3967345693140487,3.692683299000464
1499369111784,1.4343480582895154,4.730296787975931,0.09155413138023505
1499369111800,0.6408789196611906,8.209353780422589,-2.105745021744042
1499369111816,1.6174563210497581,8.148317692835917,-2.227817196917613
1499369111832,1.8005645838102282,5.157549401083315,-0.5188067444876197
1499369111848,1.8616006713969,-0.2746623941404778,2.3498893720911838
1499369111864,2.410925459678083,-0.6408789196611906,3.7537193865873633
1499369111880,2.3498893720911838,1.8616006713969,2.7161058976118966
1499369111896,2.105745021744042,3.2043945983061803,1.1902037079423735
1499369111912,2.7161058976118966,3.4485389486533222,-0.213626306553806
1499369111928,4.303044174868319,3.1433585107195086,-0.7629510948347615
1499369111944,4.9134050507361735,2.5940337224383256,0.03051804379333589
1499369111960,4.303044174868319,1.739528496223329,1.8616006713969
1499369111976,2.288853284504512,-1.9226367589837992,3.875791561760934
1499369111992,2.532997634851654,-3.936827649347606,5.157549401083315
1499369112008,2.3498893720911838,-2.7771419851987957,4.303044174868319
1499369112024,4.303044174868319,-5.706874189364498,5.462729839017356
1499369112040,7.598992904554734,-4.852368963149502,7.904173342488775
1499369112056,9.73525597009234,1.6174563210497581,9.308003356984727
1499369112072,9.369039444571627,11.688410772869474,7.232776379034021
1499369112088,6.195162890058782,18.524452582589447,4.058899824521177
1499369112104,3.7537193865873633,21.51522087434182,1.2512397955290453
1499369112120,4.242008087281647,25.05531395437538,-0.213626306553806
1499369112136,5.889982452124741,30.4875257495994,-0.213626306553806
1499369112152,4.730296787975931,28.96162355992965,1.6174563210497581
1499369112168,2.8381780727854675,21.69832913710229,2.7771419851987957
1499369112184,0.7629510948347615,16.876478217746126,0.8239871824216607
1499369112200,-0.33569848172737693,16.2050812542916,-1.1902037079423735
1499369112216,1.1902037079423735,19.562066071564686,-1.5564202334630863
1499369112232,4.242008087281647,21.33211261158158,-0.213626306553806
1499369112248,5.462729839017356,22.369726100556818,3.2043945983061803
1499369112264,6.073090714885211,26.7032883192187,6.9886320286868795
1499369112280,7.354848554207592,30.121309224078686,9.796292057679011
1499369112296,6.805523765926637,22.003509575036105,6.317235065232353
1499369112312,2.7771419851987957,6.317235065232353,0.6408789196611906
1499369112328,1.0681315327688026,-2.532997634851654,-4.42511635004189
1499369112344,0.8239871824216607,-8.148317692835917,-6.134126802471883
1499369112360,0.03051804379333589,-11.688410772869474,-4.852368963149502
1499369112376,1.3733119707026162,-12.176699473563758,-3.936827649347606
1499369112392,2.227817196917613,-9.308003356984727,-4.364080262455218
1499369112408,2.3498893720911838,-7.721065079728305,-4.42511635004189
1499369112424,2.227817196917613,1.1902037079423735,-3.692683299000464
1499369112440,2.3498893720911838,7.537956816968062,-2.9602502479590385
1499369112456,2.105745021744042,6.561379415579495,-1.0070954451819034
1499369112472,2.3498893720911838,3.2043945983061803,0.2746623941404778
1499369112488,3.570611123826893,2.8992141603723667,2.04470893415737
1499369112504,5.0354772259097444,11.505302510109004,3.7537193865873633
1499369112520,5.95101853971164,17.914091706721592,4.9134050507361735
1499369112536,6.256198977645454,20.35553521019301,7.2938124666209205
1499369112552,5.523765926604028,16.632333867398984,7.11070420386045
1499369112568,2.8381780727854675,7.17174029144735,3.875791561760934
1499369112584,2.4719615472647547,-1.2512397955290453,1.2512397955290453
1499369112600,1.8616006713969,-14.251926451514464,0.3967345693140487
1499369112616,0.7019150072480898,-29.022659647516548,-0.09155413138023505
1499369112632,-1.3122758831159445,-39.45983062485698,1.1902037079423735
1499369112648,-2.9602502479590385,-45.19722285801481,6.927595941100208
1499369112664,0.09155413138023505,-48.6762798504617,13.824673838406852
1499369112680,7.537956816968062,-48.49317158770123,18.58548867017612
1499369112696,12.726024261844714,-54.5357442587931,21.33211261158158
1499369112712,14.740215152208748,-61.98214694438093,24.01770046540014
1499369112727,20.294499122606112,-64.48462653543902,25.17738612954895
1499369112743,28.04608224612798,-71.19859616998542,25.726710917830133
1499369112759,37.32356755931937,-81.39162279697871,27.679865720607268
1499369112775,50.14114595254432,-81.94094758525966,30.853742275120112
1499369112791,62.10421911955427,-73.27382314793613,34.51590753032724
1499369112807,70.71030746929137,-66.7429617761502,40.253299763485074
1499369112823,82.00198367284656,-66.98710612649734,43.30510414282435
1499369112839,96.89478904402222,-55.3292133974212,42.69474326695649
1499369112855,106.23331044480074,-36.89631494621199,38.727397573815324
1499369112871,109.95651178759454,-17.48683909361398,32.31860837720296
1499369112887,109.10200656137931,-3.0823224231326094,24.933241779201808
1499369112903,108.49164568551168,6.805523765926637,18.524452582589447
1499369112919,106.84367132066836,10.223544670786623,16.44922560463874
1499369112935,101.41145952544457,6.927595941100208,19.378957808804444
1499369112951,92.37811856260032,-1.4343480582895154,27.069504844739413
1499369112967,81.26955062180514,-9.979400320439481,33.478294041351774
1499369112983,73.15175097276278,-10.101472495613052,34.76005188067438
1499369112999,66.55985351338995,-8.6366063935302,34.69901579308748
1499369113015,57.52651255054525,-11.444266422522333,34.943160143434625
1499369113031,44.83100633249387,-22.003509575036105,35.30937666895534
1499369113047,29.999237048905115,-29.20576791027679,34.33279926756677
1499369113063,16.32715342946517,-29.022659647516548,31.097886625467254
1499369113079,4.974441138323073,-24.750133516441565,29.38887617303726
1499369113095,-6.317235065232353,-26.337071793697987,28.534370946822264
1499369113111,-14.618142977035177,-26.153963530937517,26.153963530937517
1499369113127,-17.42580300602731,-22.919050888838,22.61387045090396
1499369113143,-19.256885633630873,-6.439307240405924,17.914091706721592
1499369113159,-21.942473487449433,15.045395590142562,11.932555123216616
1499369113175,-26.6422522316318,25.42153047989609,7.17174029144735
1499369113191,-29.14473182269012,27.496757457846797,4.303044174868319
1499369113207,-28.290226596475122,27.86297398336751,1.9226367589837992
1499369113223,-30.4264896620125,47.882810711833145,-3.1433585107195086
1499369113239,-35.98077363241032,73.02967879758944,-12.481879911497572
1499369113255,-39.76501106279102,66.07156481269567,-19.256885633630873
1499369113271,-40.13122758831173,58.38101777676047,-20.294499122606112
1499369113287,-43.244068055237676,65.76638437476186,-20.965896086060866
1499369113303,-43.244068055237676,54.535744258792874,-21.026932173647538
1499369113319,-39.70397497520412,27.008468757152514,-18.463416495002548
1499369113335,-37.3235675593196,24.26184481574728,-18.82963302052326
1499369113351,-35.12626840619532,38.78843366140222,-23.651483939879427
1499369113367,-33.23414969100486,47.02830548561815,-27.252613107499656
1499369113383,-29.999237048905115,47.943846799420044,-27.92401007095441
1499369113399,-23.041123064011572,48.6152437628748,-28.04608224612798
1499369113415,-19.01274128328373,52.88776989394955,-27.98504615854108
1499369113431,-18.341344319828977,48.493171587701,-27.069504844739413
1499369113447,-19.073777370870403,44.098573281452445,-25.05531395437538
1499369113463,-19.073777370870403,45.25825894560148,-22.61387045090396
1499369113479,-16.815442130159454,43.67132066834506,-19.684138246738257
1499369113495,-14.435034714274707,38.23910887312104,-15.899900816357558
1499369113511,-11.993591210803288,39.154650186922936,-11.566338597695903
1499369113527,-10.955977721828049,44.95307850766744,-8.880750743877343
1499369113543,-9.124895094224485,48.43213550011433,-6.439307240405924
1499369113559,-5.889982452124741,46.05172808422958,-3.6316472114137923
1499369113575,-3.3264667734797513,46.662088960097435,0.03051804379333589
1499369113591,-1.4343480582895154,45.13618677042791,2.4719615472647547
1499369113607,-6.561379415579495,29.694056610971074,-2.532997634851654
1499369113623,-9.918364232852582,19.073777370870403,-12.359807736324
1499369113639,-8.51453421835663,10.467689021133765,-22.064545662623004
1499369113655,-7.049668116273779,-2.7161058976118966,-26.58121614404513
1499369113671,-8.026245517662346,-3.7537193865873633,-28.96162355992965
1499369113687,-7.537956816968062,4.42511635004189,-29.755092698557974
1499369113703,-3.692683299000464,13.519493400473038,-32.31860837720319
1499369113719,0.2746623941404778,26.153963530937517,-36.10284580758389
1499369113735,3.997863736934505,37.384603646906044,-39.215686274509835
1499369113751,7.721065079728305,32.99000534065749,-38.30014496070817
1499369113767,10.467689021133765,20.17242694743254,-32.25757228961629
1499369113783,10.650797283894008,8.392462043183059,-26.214999618524416
1499369113799,6.622415503166167,4.242008087281647,-22.369726100556818
1499369113815,0.6408789196611906,1.4343480582895154,-21.881437399862534
1499369113831,-6.805523765926637,0.8850232700083325,-19.9282825970854
1499369113847,-7.4158846417944915,11.07804989700162,-19.1348134584573
1499369113863,-2.7771419851987957,23.529411764705856,-18.89066910811016
1499369113879,1.983672846570471,20.904859998473967,-13.58052948805971
1499369113895,4.364080262455218,13.153276874952326,-10.040436408026153
1499369113911,3.692683299000464,8.087281605249018,-6.805523765926637
1499369113927,0.2746623941404778,3.570611123826893,-6.683451590753066
1499369113943,-3.5095750362402214,0.09155413138023505,-8.392462043183059
1499369113959,-6.500343327992596,-3.4485389486533222,-9.369039444571627
1499369113975,-8.697642481116873,-3.997863736934505,-9.73525597009234
1499369113991,-9.308003356984727,1.3122758831159445,-10.162508583199724
1499369114007,-9.67421988250544,10.406652933546866,-10.772869459067579
1499369114023,-8.33142595559616,9.369039444571627,-9.85732814526591
1499369114039,-5.096513313496644,-2.227817196917613,-4.730296787975931
1499369114055,-2.5940337224383256,-14.92332341496899,1.0681315327688026
1499369114071,0.03051804379333589,-21.14900434882111,4.791332875562603
1499369114087,-0.03051804379333589,-19.562066071564686,6.378271152819025
1499369114103,0.45777065690094787,-15.289539940489703,5.523765926604028
1499369114119,2.227817196917613,-11.749446860456146,4.730296787975931
1499369114135,3.5095750362402214,-6.805523765926637,3.2654306858930795
1499369114151,3.997863736934505,-1.8616006713969,0.33569848172737693
1499369114167,2.9602502479590385,3.997863736934505,-2.532997634851654
1499369114183,1.1902037079423735,8.270389868009488,-3.814755474174035
1499369114199,-1.1291676203554744,5.706874189364498,-2.7161058976118966
1499369114215,-6.683451590753066,5.0354772259097444,-0.8239871824216607
1499369114231,-13.824673838406852,10.955977721828049,-2.04470893415737
1499369114247,-23.7125200274661,15.228503852903032,-7.17174029144735
1499369114263,-41.35194934004744,25.48256656748299,-19.195849546043974
1499369114279,-59.29655909056237,52.52155336842907,-36.652170595864845
1499369114295,-65.21705958648045,85.90829327840083,-50.38529030289169
1499369114311,-64.42359044785235,121.3092240787364,-63.81322957198449
1499369114327,-67.04814221408401,176.18066681925666,-79.2553597314411
1499369114343,-63.752193484397594,250.76676585030918,-74.92179751277945
1499369114359,-54.4747081712062,309.66659037155705,-60.82246128023189
1499369114375,-40.741588464179586,324.13214312962555,-44.8310063324941
1499369114391,-16.02197299153113,318.5168230716413,-30.73167009994654
1499369114407,-1.4343480582895154,261.5701533531701,-12.603952086671143
1499369114423,8.51453421835663,156.89326314183245,5.706874189364498
1499369114439,10.345616845960194,66.010528725109,14.740215152208748
1499369114455,16.32715342946517,47.882810711833145,14.679179064621849
1499369114471,21.942473487449433,46.845197222857905,5.645838101777599
1499369114487,22.49179827573039,51.5449759670405,-8.45349813076973
1499369114503,25.116350041962278,54.04745555809859,-16.44922560463874
1499369114519,29.08369573510322,63.263904783703765,-17.60891126878755
1499369114535,31.342030975814396,78.33981841763944,-14.92332341496899
1499369114551,32.74586099031035,89.1432059205008,-14.007782101167322
1499369114567,34.2107270923932,91.95086594949271,-14.98435950255589
1499369114583,34.2107270923932,86.33554589150845,-17.120622568093268
1499369114599,30.243381399252257,79.07225146868086,-22.064545662623004
1499369114615,33.29518577859153,86.82383459220273,-32.867933165484146
1499369114631,44.037537193865774,95.18577859159222,-40.314335851071974
1499369114647,22.186617837796575,58.01480125123953,-29.38887617303726
1499369114663,3.5095750362402214,13.397421225299468,-21.51522087434182
1499369114679,-10.833905546654478,-20.05035477225897,-18.646524757763018
1499369114695,-14.92332341496899,-30.121309224078686,-22.247653925383247
1499369114711,-11.322194247348762,-19.562066071564686,-25.726710917830133
1499369114727,-3.6316472114137923,1.3733119707026162,-25.05531395437538
1499369114743,1.8616006713969,19.684138246738257,-25.543602655069662
1499369114759,7.049668116273779,33.600366216525344,-29.755092698557974
1499369114775,14.251926451514464,45.01411459525434,-32.01342793926915
1499369114791,20.965896086060866,50.873579003585746,-31.647211413748437
1499369114807,24.13977264057371,52.094300755321456,-29.816128786144645
1499369114823,22.064545662623004,48.55420767528767,-24.444953078507524
1499369114839,16.44922560463874,40.314335851071746,-16.44922560463874
1499369114855,10.955977721828049,31.76928358892178,-7.660028992141633
1499369114871,7.232776379034021,22.919050888838,0.03051804379333589
1499369114887,5.2185854886702145,14.92332341496899,4.242008087281647
1499369114903,4.303044174868319,10.040436408026153,4.42511635004189
1499369114919,3.875791561760934,9.002822919050914,2.8381780727854675
1499369114935,5.523765926604028,10.955977721828049,1.739528496223329
1499369114951,9.246967269398056,13.58052948805971,3.570611123826893
1499369114967,11.444266422522333,14.373998626688035,6.134126802471883
1499369114983,10.711833371480907,13.76363775082018,7.4158846417944915
1499369114999,9.491111619745197,11.993591210803288,9.308003356984727
1499369115015,7.843137254901876,7.476920729381163,12.298771648737329
1499369115031,4.730296787975931,3.936827649347606,12.359807736324
1499369115047,1.1291676203554744,2.3498893720911838,9.185931181811156
1499369115063,-2.8381780727854675,2.8992141603723667,6.073090714885211
1499369115079,-6.378271152819025,1.1291676203554744,4.60822461280236
1499369115095,-7.11070420386045,1.1902037079423735,3.570611123826893
1499369115111,-6.8665598535133086,10.528725108720437,1.1291676203554744
1499369115127,-2.8992141603723667,12.115663385976859,0.5188067444876197
1499369115143,2.532997634851654,6.9886320286868795,3.3264667734797513
1499369115159,3.570611123826893,1.4343480582895154,4.547188525215461
1499369115175,3.6316472114137923,-0.2746623941404778,3.3264667734797513
1499369115191,4.486152437628789,1.2512397955290453,2.04470893415737
1499369115207,4.486152437628789,3.4485389486533222,-0.5798428320745188
1499369115223,3.6316472114137923,4.303044174868319,-2.166781109330941
1499369115239,3.570611123826893,3.6316472114137923,-1.9226367589837992
1499369115255,3.5095750362402214,3.7537193865873633,-0.6408789196611906
1499369115271,1.4343480582895154,2.9602502479590385,-0.213626306553806
1499369115287,-1.0070954451819034,1.9226367589837992,-0.45777065690094787
1499369115303,-3.2654306858930795,2.105745021744042,-0.5798428320745188
1499369115319,-4.42511635004189,3.1433585107195086,-0.213626306553806
1499369115335,-4.486152437628789,2.655069810025225,1.0681315327688026
1499369115351,-3.3875028610666504,1.8005645838102282,2.655069810025225
1499369115367,-2.410925459678083,1.4343480582895154,2.7161058976118966
1499369115383,-1.6174563210497581,2.532997634851654,1.4343480582895154
1499369115399,-1.2512397955290453,4.9134050507361735,0.2746623941404778
1499369115415,-1.0681315327688026,6.256198977645454,0.45777065690094787
1499369115431,-1.4953841458761872,4.791332875562603,1.2512397955290453
1499369115447,-2.04470893415737,2.5940337224383256,2.105745021744042
1499369115463,-1.8005645838102282,1.4343480582895154,2.288853284504512
1499369115479,-0.03051804379333589,2.410925459678083,2.105745021744042
1499369115495,2.166781109330941,3.997863736934505,0.9460593575952316
1499369115511,4.486152437628789,6.012054627298312,-0.213626306553806
1499369115527,5.462729839017356,6.8665598535133086,-0.8850232700083325
1499369115543,4.791332875562603,4.669260700389032,-1.0681315327688026
1499369115559,3.997863736934505,1.2512397955290453,-0.7629510948347615
1499369115575,3.814755474174035,-0.213626306553806,-0.7629510948347615
1499369115591,3.6316472114137923,-0.6408789196611906,0.03051804379333589
1499369115607,2.8992141603723667,0.09155413138023505,0.45777065690094787
1499369115623,1.9226367589837992,1.8616006713969,0.15259021896690683
1499369115639,1.0681315327688026,3.997863736934505,-0.15259021896690683
1499369115655,0.7629510948347615,4.852368963149502,0.03051804379333589
1499369115671,0.7019150072480898,4.730296787975931,0.15259021896690683
1499369115687,0.5188067444876197,3.936827649347606,-0.3967345693140487
1499369115703,0.5188067444876197,3.3875028610666504,-0.9460593575952316
1499369115719,0.5188067444876197,3.0212863355459376,-0.9460593575952316
1499369115735,0.5188067444876197,3.936827649347606,-0.15259021896690683
1499369115751,0.33569848172737693,5.157549401083315,0.9460593575952316
1499369115767,0.3967345693140487,4.669260700389032,0.9460593575952316
1499369115783,1.4953841458761872,4.058899824521177,0.7629510948347615
1499369115799,2.5940337224383256,4.364080262455218,-0.213626306553806
1499369115815,2.5940337224383256,7.721065079728305,-2.3498893720911838
1499369115831,0.5798428320745188,14.862287327382319,-6.195162890058782
1499369115847,-0.8850232700083325,21.57625696192872,-10.345616845960194
1499369115863,1.8005645838102282,24.07873655298681,-15.411612115663274
1499369115879,5.096513313496644,25.787747005416804,-22.430762188143717
1499369115895,6.378271152819025,27.313649195086555,-26.7032883192187
1499369115911,6.073090714885211,23.83459220263967,-25.665674830243233
1499369115927,5.096513313496644,15.716792553597315,-19.562066071564686
1499369115943,2.9602502479590385,5.0354772259097444,-14.007782101167322
1499369115959,0.6408789196611906,-0.03051804379333589,-12.726024261844714
1499369115975,-0.03051804379333589,-0.7629510948347615,-12.054627298390187
1499369115991,1.0681315327688026,-3.2654306858930795,-6.622415503166167
1499369116007,1.0070954451819034,-3.875791561760934,-0.8239871824216607
1499369116023,0.5798428320745188,-2.7771419851987957,1.5564202334630863
1499369116039,2.288853284504512,-0.5188067444876197,0.2746623941404778
1499369116055,4.60822461280236,1.8616006713969,-0.09155413138023505
1499369116071,5.584802014190927,2.105745021744042,2.227817196917613
1499369116087,4.974441138323073,0.3967345693140487,3.6316472114137923
1499369116103,4.364080262455218,-0.6408789196611906,3.5095750362402214
1499369116119,3.7537193865873633,-0.7019150072480898,3.2043945983061803
1499369116135,2.7161058976118966,-0.33569848172737693,3.570611123826893
1499369116151,2.166781109330941,1.0070954451819034,5.889982452124741
1499369116167,1.8616006713969,1.3122758831159445,8.270389868009488
1499369116183,1.8616006713969,-0.09155413138023505,8.575570305943302
1499369116199,1.739528496223329,-0.2746623941404778,8.819714656290444
1499369116215,1.4953841458761872,0.03051804379333589,9.369039444571627
1499369116231,2.7771419851987957,0.5188067444876197,9.796292057679011
1499369116247,5.645838101777599,1.1902037079423735,11.810482948043045
1499369116263,10.467689021133765,3.1433585107195086,14.496070801861606
1499369116279,18.097199969481835,8.209353780422589,18.341344319828977
1499369116295,24.444953078507524,9.430075532158298,22.8580148012511
1499369116311,29.999237048905115,9.55214770733187,24.933241779201808
1499369116327,34.2717631799801,12.909132524605184,25.05531395437538
1499369116343,37.506675822079615,17.975127794308264,24.26184481574728
1499369116359,36.95735103379866,22.980086976424673,24.750133516441565
1499369116375,35.18730449378177,25.60463874265656,27.252613107499656
1499369116391,34.821087968261054,25.17738612954895,30.121309224078686
1499369116407,33.29518577859153,25.05531395437538,31.464103150987967
1499369116423,31.52513923857464,22.369726100556818,29.999237048905115
1499369116439,29.38887617303726,17.54787518120088,28.534370946822264
1499369116455,24.933241779201808,13.336385137712568,27.496757457846797
1499369116471,18.82963302052326,9.308003356984727,25.848783093003703
1499369116487,11.932555123216616,6.073090714885211,22.61387045090396
1499369116503,4.60822461280236,1.4953841458761872,21.881437399862534
1499369116519,-5.523765926604028,-3.875791561760934,21.637293049515392
1499369116535,-11.566338597695903,-7.843137254901876,19.01274128328373
1499369116551,-11.627374685282575,-6.195162890058782,15.411612115663274
1499369116567,-9.796292057679011,-2.04470893415737,11.688410772869474
1499369116583,-9.796292057679011,3.6316472114137923,6.500343327992596
1499369116599,-10.040436408026153,9.369039444571627,1.1291676203554744
1499369116615,-7.476920729381163,7.843137254901876,-2.5940337224383256
1499369116631,-4.60822461280236,1.1291676203554744,-2.3498893720911838
1499369116647,-3.692683299000464,-3.2654306858930795,-0.5188067444876197
1499369116663,-3.570611123826893,-5.706874189364498,0.2746623941404778
1499369116679,-2.4719615472647547,-5.889982452124741,-0.3967345693140487
1499369116695,-1.3733119707026162,-3.3264667734797513,-2.105745021744042
1499369116711,-1.0681315327688026,0.15259021896690683,-3.0823224231326094
1499369116727,-1.1291676203554744,2.166781109330941,-2.410925459678083
1499369116743,-1.2512397955290453,2.7161058976118966,-2.3498893720911838
1499369116759,-1.3122758831159445,4.242008087281647,-3.3264667734797513
1499369116775,-1.0070954451819034,4.852368963149502,-4.242008087281647
1499369116791,-0.8239871824216607,4.242008087281647,-4.242008087281647
1499369116807,-1.1291676203554744,3.2654306858930795,-5.096513313496644
1499369116823,-1.8616006713969,3.1433585107195086,-6.256198977645454
1499369116839,-2.532997634851654,2.9602502479590385,-5.706874189364498
1499369116855,-3.5095750362402214,-0.7019150072480898,-3.570611123826893
1499369116871,-4.9134050507361735,-5.279621576256886,-2.166781109330941
1499369116887,-6.195162890058782,-7.843137254901876,-1.9226367589837992
1499369116903,-7.354848554207592,-8.51453421835663,-1.8005645838102282
1499369116919,-9.124895094224485,-6.073090714885211,-0.7629510948347615
1499369116935,-10.650797283894008,-3.692683299000464,1.0681315327688026
1499369116951,-9.613183794918768,-0.3967345693140487,1.9226367589837992
1499369116967,-7.17174029144735,3.814755474174035,1.8005645838102282
1499369116983,-4.9134050507361735,6.8665598535133086,1.5564202334630863
1499369116999,-3.1433585107195086,7.476920729381163,1.1902037079423735
1499369117015,-0.9460593575952316,5.401693751430457,0.7629510948347615
1499369117031,1.0070954451819034,3.2654306858930795,0.2746623941404778
1499369117047,2.3498893720911838,2.410925459678083,-0.33569848172737693
1499369117063,3.4485389486533222,2.7771419851987957,-0.5798428320745188
1499369117079,4.486152437628789,3.4485389486533222,-0.2746623941404778
1499369117095,4.9134050507361735,3.5095750362402214,-0.2746623941404778
1499369117111,4.303044174868319,3.692683299000464,-0.7629510948347615
1499369117127,3.6316472114137923,3.570611123826893,-1.0070954451819034
1499369117143,2.9602502479590385,3.3264667734797513,-0.15259021896690683
1499369117159,2.410925459678083,1.8616006713969,-0.03051804379333589
1499369117175,2.532997634851654,0.8850232700083325,-0.15259021896690683
1499369117191,2.655069810025225,3.570611123826893,-0.03051804379333589
1499369117207,2.4719615472647547,8.026245517662346,-0.33569848172737693
1499369117223,1.4343480582895154,7.782101167315204,-0.3967345693140487
1499369117239,0.03051804379333589,4.364080262455218,-0.2746623941404778
1499369117255,-1.1291676203554744,0.5798428320745188,-0.09155413138023505
1499369117271,-1.739528496223329,-2.105745021744042,-0.15259021896690683
1499369117287,-0.6408789196611906,-2.7161058976118966,-0.6408789196611906
1499369117303,1.8616006713969,-0.6408789196611906,-1.2512397955290453
1499369117319,4.364080262455218,2.8992141603723667,-1.8616006713969
1499369117335,4.974441138323073,4.852368963149502,-2.04470893415737
1499369117351,3.6316472114137923,5.0354772259097444,-2.227817196917613
1499369117367,0.3967345693140487,4.486152437628789,-2.7161058976118966
1499369117383,-3.3875028610666504,1.6784924086366573,-3.936827649347606
1499369117399,-4.9134050507361735,-0.45777065690094787,-5.462729839017356
1499369117415,-4.119935912108076,-2.532997634851654,-6.378271152819025
1499369117431,-1.8616006713969,-2.9602502479590385,-6.012054627298312
1499369117447,0.03051804379333589,-1.0681315327688026,-5.706874189364498
1499369117463,1.6784924086366573,1.8005645838102282,-4.974441138323073
1499369117479,3.570611123826893,4.303044174868319,-2.9602502479590385
1499369117495,4.303044174868319,4.9134050507361735,-2.227817196917613
1499369117511,3.7537193865873633,4.42511635004189,-2.8992141603723667
1499369117527,1.9226367589837992,2.9602502479590385,-3.997863736934505
1499369117543,-0.6408789196611906,3.814755474174035,-3.7537193865873633
1499369117559,-3.5095750362402214,5.584802014190927,-2.410925459678083
1499369117575,-4.60822461280236,7.354848554207592,-1.5564202334630863
1499369117591,-3.875791561760934,7.782101167315204,-0.8850232700083325
1499369117607,-3.570611123826893,9.430075532158298,1.3122758831159445
1499369117623,1.3733119707026162,14.190890363927565,1.1291676203554744
1499369117639,1.8616006713969,4.852368963149502,1.1291676203554744
1499369117655,2.227817196917613,-1.3733119707026162,1.4953841458761872
1499369117671,1.3122758831159445,-5.706874189364498,0.5798428320745188
1499369117687,0.7019150072480898,-10.528725108720437,0.2746623941404778
1499369117703,3.0212863355459376,-11.993591210803288,2.105745021744042
1499369117719,7.17174029144735,-11.688410772869474,-0.15259021896690683
1499369117735,11.322194247348762,-7.354848554207592,-4.547188525215461
1499369117751,11.871519035629717,-3.3875028610666504,-8.575570305943302
1499369117767,11.07804989700162,-4.058899824521177,-10.833905546654478
1499369117783,9.979400320439481,-8.51453421835663,-11.810482948043045
1499369117799,8.697642481116873,-10.040436408026153,-12.4208438239109
1499369117815,7.660028992141633,-6.805523765926637,-13.397421225299468
1499369117831,5.95101853971164,1.0681315327688026,-16.815442130159454
1499369117847,4.547188525215461,9.55214770733187,-21.820401312275862
1499369117863,3.1433585107195086,13.76363775082018,-25.17738612954895
1499369117879,1.0681315327688026,16.571297779812312,-25.116350041962278
1499369117895,-1.1291676203554744,16.693369954985883,-23.346303501945386
1499369117911,-3.7537193865873633,16.1440451667047,-20.660715648126825
1499369117927,-6.927595941100208,15.045395590142562,-17.120622568093268
1499369117943,-8.148317692835917,15.411612115663274,-16.02197299153113
1499369117959,-6.256198977645454,17.36476691844041,-18.097199969481835
1499369117975,-3.570611123826893,21.57625696192872,-21.45418478675515
1499369117991,-1.739528496223329,27.435721370260126,-25.29945830472252
1499369118007,0.03051804379333589,29.877164873731545,-28.473334859235365
1499369118023,1.6784924086366573,28.290226596475122,-29.449912260623933
1499369118039,1.6174563210497581,23.651483939879427,-27.61882963302037
1499369118055,1.0070954451819034,16.08300907911803,-23.95666437781324
1499369118071,1.0681315327688026,8.026245517662346,-19.562066071564686
1499369118087,2.4719615472647547,2.532997634851654,-13.885709925993751
1499369118103,3.692683299000464,0.6408789196611906,-10.284580758373295
1499369118119,4.730296787975931,3.814755474174035,-8.697642481116873
1499369118135,4.852368963149502,8.575570305943302,-7.598992904554734
1499369118151,4.486152437628789,11.688410772869474,-6.439307240405924
1499369118167,3.3264667734797513,14.98435950255589,-5.889982452124741
1499369118183,3.0212863355459376,17.66994735637445,-4.9134050507361735
1499369118199,3.0212863355459376,19.073777370870403,-4.42511635004189
1499369118215,3.2654306858930795,18.402380407415876,-5.401693751430457
1499369118231,3.875791561760934,15.167467765316132,-6.622415503166167
1499369118247,2.7161058976118966,3.570611123826893,-3.4485389486533222
1499369118263,-0.7629510948347615,-6.134126802471883,2.3498893720911838
1499369118279,-2.410925459678083,-10.589761196307336,3.814755474174035
1499369118295,1.5564202334630863,-4.791332875562603,2.532997634851654
1499369118311,6.073090714885211,3.5095750362402214,1.8005645838102282
1499369118327,7.721065079728305,7.904173342488775,3.2043945983061803
1499369118343,6.622415503166167,5.462729839017356,4.791332875562603
1499369118359,5.645838101777599,-0.6408789196611906,5.95101853971164
1499369118375,6.195162890058782,-4.303044174868319,6.683451590753066
1499369118391,6.927595941100208,-4.730296787975931,8.6366063935302
1499369118407,8.880750743877343,-4.791332875562603,11.932555123216616
1499369118423,11.749446860456146,-4.180971999694748,15.472648203250174
1499369118439,13.76363775082018,-3.3264667734797513,17.48683909361398
1499369118455,13.519493400473038,-0.03051804379333589,18.463416495002548
1499369118471,12.542915999084471,3.570611123826893,19.01274128328373
1499369118487,13.519493400473038,6.012054627298312,19.745174334325156
1499369118503,15.655756466010416,6.8665598535133086,19.073777370870403
1499369118519,17.48683909361398,8.758678568703772,18.82963302052326
1499369118535,16.510261692225413,7.11070420386045,20.416571297779683
1499369118551,14.251926451514464,4.791332875562603,21.45418478675515
1499369118567,12.726024261844714,1.4343480582895154,20.843823910887295
1499369118583,11.139085984588291,-0.15259021896690683,18.524452582589447
1499369118599,10.223544670786623,1.6784924086366573,16.08300907911803
1499369118615,10.955977721828049,3.2043945983061803,12.848096437018285
1499369118631,11.810482948043045,2.227817196917613,10.162508583199724
1499369118647,11.383230334935433,1.4953841458761872,9.063859006637585
1499369118663,11.505302510109004,8.45349813076973,6.561379415579495
1499369118679,7.598992904554734,5.401693751430457,3.0823224231326094
1499369118695,4.974441138323073,4.60822461280236,0.9460593575952316
1499369118711,2.8992141603723667,5.2185854886702145,-0.33569848172737693
1499369118727,0.9460593575952316,6.500343327992596,0.8239871824216607
1499369118743,1.1291676203554744,6.744487678339738,0.8239871824216607
1499369118759,2.410925459678083,8.819714656290444,-0.03051804379333589
1499369118775,3.2043945983061803,9.979400320439481,-1.0681315327688026
1499369118791,2.410925459678083,7.354848554207592,-1.6784924086366573
1499369118807,0.8850232700083325,2.532997634851654,-2.166781109330941
1499369118823,-0.09155413138023505,-1.4953841458761872,-2.655069810025225
1499369118839,-1.3733119707026162,-1.1291676203554744,-2.7771419851987957
1499369118855,-2.8992141603723667,1.8616006713969,-0.15259021896690683
1499369118871,-1.8616006713969,2.288853284504512,0.09155413138023505
1499369118887,0.09155413138023505,4.486152437628789,-1.0681315327688026
1499369118903,1.6174563210497581,6.439307240405924,-1.3733119707026162
1499369118919,1.8005645838102282,5.462729839017356,-0.8850232700083325
1499369118935,2.532997634851654,3.5095750362402214,-0.2746623941404778
1499369118951,3.0212863355459376,1.2512397955290453,-0.3967345693140487
1499369118967,3.2654306858930795,0.33569848172737693,-1.0681315327688026
1499369118983,3.7537193865873633,-0.7629510948347615,-2.4719615472647547
1499369118999,3.6316472114137923,-2.166781109330941,-3.0823224231326094
1499369119015,2.227817196917613,-2.655069810025225,-2.227817196917613
1499369119031,1.3733119707026162,-2.655069810025225,-1.5564202334630863
1499369119047,1.2512397955290453,-1.8005645838102282,-1.2512397955290453
1499369119063,1.9226367589837992,-0.33569848172737693,-1.0070954451819034
1499369119079,2.655069810025225,1.2512397955290453,-0.7629510948347615
1499369119095,3.5095750362402214,2.532997634851654,-0.213626306553806
1499369119111,3.1433585107195086,3.3264667734797513,0.09155413138023505
1499369119127,1.8005645838102282,3.4485389486533222,-0.33569848172737693
1499369119143,0.6408789196611906,2.9602502479590385,-0.8239871824216607
1499369119159,0.3967345693140487,2.105745021744042,-0.213626306553806
1499369119175,0.7019150072480898,1.739528496223329,1.0681315327688026
1499369119191,1.1291676203554744,2.166781109330941,1.1902037079423735
1499369119207,1.8005645838102282,3.814755474174035,0.15259021896690683
1499369119223,2.166781109330941,4.730296787975931,-0.7019150072480898
1499369119239,1.8616006713969,4.119935912108076,-0.8239871824216607
1499369119255,1.4343480582895154,3.570611123826893,-0.3967345693140487
1499369119271,2.105745021744042,3.1433585107195086,0.09155413138023505
1499369119287,3.3875028610666504,3.4485389486533222,0.213626306553806
1499369119303,4.119935912108076,3.2654306858930795,-0.15259021896690683
1499369119319,3.692683299000464,2.532997634851654,-0.33569848172737693
1499369119335,2.105745021744042,2.166781109330941,-0.09155413138023505
1499369119351,1.4343480582895154,2.227817196917613,0.09155413138023505
1499369119367,1.4953841458761872,3.0212863355459376,-0.213626306553806
1499369119383,2.04470893415737,3.3264667734797513,-0.2746623941404778
1499369119399,1.983672846570471,2.7161058976118966,0.3967345693140487
1499369119415,2.288853284504512,2.8992141603723667,0.8239871824216607
1499369119431,2.7771419851987957,3.570611123826893,0.3967345693140487
1499369119447,3.2654306858930795,3.3264667734797513,0.3967345693140487
1499369119463,3.2043945983061803,3.0823224231326094,1.0070954451819034
1499369119479,2.7771419851987957,3.6316472114137923,1.4953841458761872
1499369119495,2.105745021744042,4.60822461280236,1.0681315327688026
1499369119511,1.8005645838102282,4.852368963149502,0.5798428320745188
1499369119527,1.8005645838102282,3.570611123826893,0.5188067444876197
1499369119543,1.9226367589837992,3.0212863355459376,0.5798428320745188
1499369119559,1.9226367589837992,3.4485389486533222,0.2746623941404778
1499369119575,2.227817196917613,3.4485389486533222,0.33569848172737693
1499369119591,2.8992141603723667,3.0212863355459376,0.7019150072480898
1499369119607,3.1433585107195086,1.739528496223329,0.8850232700083325
1499369119623,2.8381780727854675,1.6784924086366573,0.6408789196611906
1499369119639,2.655069810025225,2.105745021744042,0.2746623941404778
1499369119655,2.8992141603723667,2.7771419851987957,0.2746623941404778
1499369119671,3.2654306858930795,3.3264667734797513,0.213626306553806
1499369119687,3.2043945983061803,3.814755474174035,0.5188067444876197
1499369119703,1.983672846570471,5.76791027695117,0.7629510948347615
1499369119719,1.4343480582895154,6.256198977645454,0.5188067444876197
1499369119735,1.8005645838102282,4.669260700389032,0.2746623941404778
1499369119751,1.6784924086366573,2.9602502479590385,0.03051804379333589
1499369119767,2.105745021744042,1.1902037079423735,0.213626306553806
1499369119783,3.3875028610666504,0.15259021896690683,0.7629510948347615
1499369119799,4.364080262455218,1.3122758831159445,1.1291676203554744
1499369119815,4.9134050507361735,3.7537193865873633,0.8850232700083325
1499369119831,5.2185854886702145,6.317235065232353,0.9460593575952316
1499369119847,5.706874189364498,7.843137254901876,1.1291676203554744
1499369119863,6.317235065232353,6.500343327992596,2.288853284504512
1499369119879,6.927595941100208,5.2185854886702145,4.852368963149502
1499369119895,7.2938124666209205,4.119935912108076,7.660028992141633
1499369119911,6.012054627298312,1.3122758831159445,10.406652933546866
1499369119927,4.974441138323073,0.213626306553806,12.4208438239109
1499369119943,7.17174029144735,1.1291676203554744,13.885709925993751
1499369119959,11.993591210803288,0.5798428320745188,16.2050812542916
1499369119975,14.618142977035177,1.4343480582895154,17.24269474326684
1499369119991,14.679179064621849,3.875791561760934,16.693369954985883
1499369120007,14.435034714274707,4.9134050507361735,15.960936903944457
1499369120023,14.373998626688035,5.3406576638437855,17.54787518120088
1499369120039,13.946746013580423,3.997863736934505,19.80621042191183
1499369120055,12.4208438239109,2.3498893720911838,23.529411764705856
1499369120071,9.918364232852582,5.2185854886702145,18.280308232242305
1499369120087,9.369039444571627,9.67421988250544,11.810482948043045
1499369120103,6.378271152819025,9.185931181811156,8.148317692835917
1499369120119,1.4953841458761872,6.622415503166167,4.364080262455218
1499369120135,-1.0681315327688026,7.2938124666209205,0.33569848172737693
1499369120151,-2.7161058976118966,6.378271152819025,-1.5564202334630863
1499369120167,-2.8992141603723667,4.180971999694748,-1.1902037079423735
1499369120183,-0.45777065690094787,3.7537193865873633,-0.15259021896690683
1499369120199,3.1433585107195086,3.1433585107195086,0.2746623941404778
1499369120215,6.195162890058782,1.0681315327688026,-0.03051804379333589
1499369120231,8.026245517662346,-0.8850232700083325,0.6408789196611906
1499369120247,7.660028992141633,-0.5798428320745188,1.0070954451819034
1499369120263,5.95101853971164,0.9460593575952316,0.45777065690094787
1499369120279,3.3264667734797513,0.8239871824216607,-0.03051804379333589
1499369120295,0.213626306553806,1.3122758831159445,-0.2746623941404778
1499369120311,-0.8239871824216607,2.532997634851654,-0.8239871824216607
1499369120327,-0.3967345693140487,3.6316472114137923,-1.0070954451819034
1499369120343,0.8850232700083325,2.8992141603723667,-1.0681315327688026
1499369120359,1.983672846570471,2.9602502479590385,-0.8850232700083325
1499369120375,2.227817196917613,2.8992141603723667,-0.6408789196611906
1499369120391,1.4953841458761872,2.9602502479590385,-0.5188067444876197
1499369120407,0.6408789196611906,3.997863736934505,-0.9460593575952316
1499369120423,0.2746623941404778,5.2185854886702145,-1.6784924086366573
1499369120439,0.33569848172737693,2.4719615472647547,-0.33569848172737693
1499369120455,1.0070954451819034,1.6784924086366573,0.03051804379333589
1499369120471,1.9226367589837992,0.8239871824216607,0.03051804379333589
1499369120487,1.739528496223329,0.2746623941404778,0.33569848172737693
1499369120503,1.0681315327688026,1.2512397955290453,0.33569848172737693
1499369120519,1.0070954451819034,3.5095750362402214,-0.33569848172737693
1499369120535,1.9226367589837992,4.303044174868319,-0.45777065690094787
1499369120551,2.4719615472647547,3.2043945983061803,-0.3967345693140487
1499369120567,2.532997634851654,1.8616006713969,-0.2746623941404778
1499369120583,2.410925459678083,1.4343480582895154,0.2746623941404778
1499369120599,1.983672846570471,0.3967345693140487,0.9460593575952316
1499369120615,1.2512397955290453,-0.5798428320745188,1.1291676203554744
1499369120631,0.15259021896690683,-0.213626306553806,0.8850232700083325
1499369120647,-0.3967345693140487,0.8850232700083325,0.8850232700083325
1499369120663,-0.5798428320745188,1.6784924086366573,0.7629510948347615
1499369120679,-0.03051804379333589,1.9226367589837992,0.5188067444876197
1499369120695,0.9460593575952316,2.4719615472647547,-0.09155413138023505
1499369120711,2.166781109330941,4.119935912108076,-0.6408789196611906
1499369120727,2.410925459678083,5.157549401083315,-0.2746623941404778
1499369120743,2.166781109330941,4.364080262455218,0.213626306553806
1499369120759,1.3122758831159445,2.532997634851654,0.2746623941404778
1499369120775,0.8239871824216607,1.1291676203554744,0.213626306553806
1499369120791,1.1902037079423735,0.5798428320745188,0.15259021896690683
1499369120807,1.8616006713969,0.9460593575952316,0.15259021896690683
1499369120823,2.410925459678083,1.6784924086366573,0.2746623941404778
1499369120839,2.227817196917613,2.166781109330941,0.2746623941404778
1499369120855,1.6174563210497581,2.04470893415737,0.2746623941404778
1499369120871,0.8850232700083325,1.739528496223329,0.09155413138023505
1499369120887,0.33569848172737693,1.6174563210497581,0.03051804379333589
1499369120903,0.09155413138023505,1.8005645838102282,-0.213626306553806
1499369120919,0.3967345693140487,2.5940337224383256,-0.03051804379333589
1499369120935,1.1902037079423735,3.6316472114137923,0.15259021896690683
1499369120951,2.3498893720911838,5.3406576638437855,0.03051804379333589
1499369120967,2.7161058976118966,6.256198977645454,0.03051804379333589
1499369120983,2.7161058976118966,6.256198977645454,0.09155413138023505
1499369120999,2.7771419851987957,4.547188525215461,0.15259021896690683
1499369121015,3.1433585107195086,2.04470893415737,0.5798428320745188
1499369121031,3.6316472114137923,0.33569848172737693,1.0070954451819034
1499369121047,3.6316472114137923,1.1902037079423735,1.1902037079423735
1499369121063,3.3264667734797513,3.2043945983061803,0.8239871824216607
1499369121079,2.9602502479590385,5.3406576638437855,0.09155413138023505
1499369121095,2.166781109330941,6.073090714885211,0.15259021896690683
1499369121111,0.6408789196611906,5.3406576638437855,1.3733119707026162
1499369121127,-1.3122758831159445,5.828946364538069,1.2512397955290453
1499369121143,-2.288853284504512,3.692683299000464,1.1902037079423735
1499369121159,-2.227817196917613,1.6784924086366573,-1.1902037079423735
1499369121175,-1.3733119707026162,2.5940337224383256,-4.180971999694748
1499369121191,0.3967345693140487,5.645838101777599,-5.2185854886702145
1499369121207,1.8616006713969,9.979400320439481,-3.6316472114137923
1499369121223,3.5095750362402214,11.01701380941472,-2.166781109330941
1499369121239,3.875791561760934,9.613183794918768,-0.15259021896690683
1499369121255,2.9602502479590385,9.063859006637585,0.03051804379333589
1499369121271,2.410925459678083,9.063859006637585,-0.09155413138023505
1499369121287,2.5940337224383256,8.33142595559616,-0.03051804379333589
1499369121303,3.0823224231326094,7.049668116273779,0.09155413138023505
1499369121318,3.3264667734797513,5.95101853971164,0.5798428320745188
1499369121334,3.2654306858930795,4.730296787975931,1.2512397955290453
1499369121350,2.288853284504512,4.852368963149502,1.739528496223329
1499369121366,0.8850232700083325,4.364080262455218,1.4343480582895154
1499369121382,0.213626306553806,3.570611123826893,0.2746623941404778
1499369121398,0.213626306553806,2.8992141603723667,-1.0070954451819034
1499369121414,0.15259021896690683,2.7161058976118966,-1.4953841458761872
1499369121430,0.7629510948347615,3.3875028610666504,-0.9460593575952316
1499369121446,1.983672846570471,4.303044174868319,-0.15259021896690683
1499369121462,2.655069810025225,5.2185854886702145,0.09155413138023505
1499369121478,2.5940337224383256,5.584802014190927,-0.09155413138023505
1499369121494,2.3498893720911838,4.42511635004189,-0.03051804379333589
1499369121510,2.532997634851654,3.0823224231326094,0.2746623941404778
1499369121526,3.3264667734797513,2.410925459678083,0.45777065690094787
1499369121542,4.119935912108076,2.655069810025225,0.5188067444876197
1499369121558,4.852368963149502,3.1433585107195086,0.3967345693140487
1499369121574,5.0354772259097444,2.7771419851987957,0.45777065690094787
1499369121590,4.669260700389032,2.655069810025225,0.7019150072480898
1499369121606,4.058899824521177,2.655069810025225,0.7019150072480898
1499369121622,3.3875028610666504,2.7771419851987957,0.9460593575952316
1499369121638,3.1433585107195086,2.166781109330941,1.0070954451819034
1499369121654,3.2654306858930795,1.6784924086366573,0.7019150072480898
1499369121670,2.8381780727854675,1.3122758831159445,0.7629510948347615
1499369121686,2.410925459678083,1.0070954451819034,0.7019150072480898
1499369121702,2.8381780727854675,1.3122758831159445,0.213626306553806
1499369121718,3.2654306858930795,1.4343480582895154,-0.09155413138023505
1499369121734,2.9602502479590385,0.6408789196611906,0.09155413138023505
1499369121750,2.3498893720911838,0.45777065690094787,0.7019150072480898
1499369121766,2.04470893415737,1.0070954451819034,1.1291676203554744
1499369121782,1.3733119707026162,1.3122758831159445,1.1902037079423735
1499369121798,0.03051804379333589,0.45777065690094787,0.8239871824216607
1499369121814,-1.0681315327688026,-0.03051804379333589,0.45777065690094787
1499369121830,-0.8239871824216607,0.45777065690094787,0.2746623941404778
1499369121846,0.8850232700083325,1.739528496223329,-0.213626306553806
1499369121862,2.5940337224383256,3.6316472114137923,-0.6408789196611906
1499369121878,3.2654306858930795,4.42511635004189,-0.15259021896690683
1499369121894,3.3264667734797513,4.119935912108076,0.3967345693140487
1499369121910,3.0823224231326094,3.2043945983061803,0.5798428320745188
1499369121926,2.7771419851987957,2.04470893415737,0.09155413138023505
1499369121942,2.5940337224383256,1.2512397955290453,0.09155413138023505
1499369121958,2.288853284504512,1.0681315327688026,0.5798428320745188
1499369121974,2.7771419851987957,2.4719615472647547,0.3967345693140487
1499369121990,3.2654306858930795,4.547188525215461,0.15259021896690683
1499369122006,3.6316472114137923,5.157549401083315,-0.15259021896690683
1499369122022,3.692683299000464,4.730296787975931,-0.2746623941404778
1499369122038,3.1433585107195086,3.5095750362402214,-0.3967345693140487
1499369122054,2.5940337224383256,1.739528496223329,-0.45777065690094787
1499369122070,2.4719615472647547,0.33569848172737693,-0.2746623941404778
1499369122086,2.532997634851654,0.2746623941404778,-0.03051804379333589
1499369122102,2.655069810025225,1.8005645838102282,0.15259021896690683
1499369122118,2.7771419851987957,2.9602502479590385,0.03051804379333589
1499369122134,3.0212863355459376,4.058899824521177,-0.213626306553806
1499369122150,2.7771419851987957,4.730296787975931,-0.15259021896690683
1499369122166,2.410925459678083,3.997863736934505,-0.09155413138023505
1499369122182,2.288853284504512,2.8992141603723667,-0.33569848172737693
1499369122198,2.3498893720911838,1.9226367589837992,-0.33569848172737693
1499369122214,2.655069810025225,1.2512397955290453,0.09155413138023505
1499369122230,2.7771419851987957,1.9226367589837992,0.33569848172737693
1499369122246,3.0212863355459376,2.7161058976118966,-0.03051804379333589
1499369122262,3.0823224231326094,2.8381780727854675,-0.15259021896690683
1499369122278,2.8992141603723667,2.9602502479590385,0.09155413138023505
1499369122294,2.8381780727854675,3.692683299000464,0.09155413138023505
1499369122310,2.9602502479590385,4.242008087281647,-0.09155413138023505
1499369122326,3.3264667734797513,3.997863736934505,0.09155413138023505
1499369122342,3.3875028610666504,3.4485389486533222,0.5188067444876197
1499369122358,3.4485389486533222,3.1433585107195086,0.6408789196611906
1499369122374,3.3264667734797513,3.3875028610666504,0.2746623941404778
1499369122390,2.7771419851987957,3.570611123826893,-0.09155413138023505
1499369122406,2.105745021744042,3.5095750362402214,-0.15259021896690683
1499369122422,2.04470893415737,3.4485389486533222,-0.2746623941404778
1499369122438,2.4719615472647547,3.0212863355459376,-0.2746623941404778
1499369122454,2.4719615472647547,2.4719615472647547,0.09155413138023505
1499369122470,2.227817196917613,2.166781109330941,0.5798428320745188
1499369122486,2.532997634851654,2.04470893415737,0.5188067444876197
1499369122502,2.7161058976118966,2.4719615472647547,0.45777065690094787
1499369122518,2.8381780727854675,2.4719615472647547,0.6408789196611906
1499369122534,3.692683299000464,1.983672846570471,0.8850232700083325
1499369122550,3.7537193865873633,2.04470893415737,0.9460593575952316
1499369122566,3.0212863355459376,2.655069810025225,0.33569848172737693
1499369122582,1.6784924086366573,2.4719615472647547,-0.2746623941404778
1499369122598,0.5798428320745188,2.166781109330941,-0.5188067444876197
1499369122614,0.213626306553806,1.739528496223329,-0.3967345693140487
1499369122630,0.45777065690094787,1.6784924086366573,-0.09155413138023505
1499369122646,0.5188067444876197,2.288853284504512,0.3967345693140487
1499369122662,0.213626306553806,4.791332875562603,-0.7019150072480898
1499369122678,-0.8239871824216607,4.242008087281647,-1.1902037079423735
1499369122694,-2.105745021744042,-0.03051804379333589,-1.9226367589837992
1499369122710,-2.227817196917613,-4.303044174868319,-1.983672846570471
1499369122726,-1.8616006713969,-6.683451590753066,-1.1291676203554744
1499369122742,-2.3498893720911838,-7.049668116273779,-0.45777065690094787
1499369122758,-2.9602502479590385,-7.965209430075447,-0.5188067444876197
1499369122774,-5.0354772259097444,-9.124895094224485,-0.45777065690094787
1499369122790,-8.51453421835663,-9.979400320439481,-0.45777065690094787
1499369122806,-10.345616845960194,-9.246967269398056,0.3967345693140487
1499369122822,-8.880750743877343,-7.11070420386045,1.8005645838102282
1499369122838,-5.828946364538069,-5.2185854886702145,2.410925459678083
1499369122854,-4.242008087281647,-4.119935912108076,1.9226367589837992
1499369122870,-5.157549401083315,-4.9134050507361735,1.4343480582895154
1499369122886,-7.843137254901876,-8.6366063935302,1.1902037079423735
1499369122902,-11.139085984588291,-12.481879911497572,0.5188067444876197
1499369122918,-12.603952086671143,-8.697642481116873,1.6784924086366573
1499369122934,-10.711833371480907,3.1433585107195086,3.3264667734797513
1499369122950,-6.439307240405924,14.557106889448278,-3.692683299000464
1499369122966,-1.3733119707026162,17.181658655680167,-6.927595941100208
1499369122982,0.8850232700083325,12.054627298390187,-5.76791027695117
1499369122998,1.4953841458761872,7.598992904554734,-4.547188525215461
1499369123014,1.4343480582895154,5.3406576638437855,-5.3406576638437855
1499369123030,1.3122758831159445,5.157549401083315,-6.622415503166167
1499369123046,1.1291676203554744,4.669260700389032,-7.660028992141633
1499369123062,1.3733119707026162,4.42511635004189,-5.645838101777599
1499369123078,1.8005645838102282,2.655069810025225,-3.0212863355459376
1499369123094,1.983672846570471,3.1433585107195086,-2.3498893720911838
1499369123110,3.1433585107195086,7.11070420386045,-2.5940337224383256
1499369123126,4.303044174868319,9.369039444571627,-2.8381780727854675
1499369123142,5.0354772259097444,8.270389868009488,-2.9602502479590385
1499369123158,5.584802014190927,6.317235065232353,-2.655069810025225
1499369123174,5.828946364538069,6.439307240405924,-1.6784924086366573
1499369123190,4.791332875562603,7.11070420386045,-0.33569848172737693
1499369123206,3.5095750362402214,6.012054627298312,-0.2746623941404778
1499369123222,2.7771419851987957,5.279621576256886,-0.3967345693140487
1499369123238,2.3498893720911838,4.852368963149502,-0.6408789196611906
1499369123254,2.655069810025225,4.669260700389032,-0.7629510948347615
1499369123270,3.0212863355459376,4.60822461280236,-0.8239871824216607
1499369123286,3.0212863355459376,4.730296787975931,-0.33569848172737693
1499369123302,2.4719615472647547,4.791332875562603,-0.5188067444876197
1499369123318,1.9226367589837992,4.119935912108076,-0.7629510948347615
1499369123334,1.8616006713969,3.1433585107195086,-0.45777065690094787
1499369123350,1.3122758831159445,2.3498893720911838,-0.7629510948347615
1499369123366,-0.213626306553806,1.6784924086366573,-1.3733119707026162
1499369123382,-1.2512397955290453,1.3122758831159445,-1.3122758831159445
1499369123398,-1.4953841458761872,1.1902037079423735,-0.8850232700083325
1499369123414,-0.3967345693140487,1.6784924086366573,-0.33569848172737693
1499369123430,0.9460593575952316,1.8005645838102282,-0.3967345693140487
1499369123446,1.3122758831159445,2.4719615472647547,-0.3967345693140487
1499369123462,1.0070954451819034,3.570611123826893,-0.213626306553806
1499369123478,1.2512397955290453,5.0354772259097444,0.03051804379333589
1499369123494,1.4343480582895154,5.584802014190927,-0.2746623941404778
1499369123510,1.4953841458761872,5.2185854886702145,-0.45777065690094787
1499369123526,1.1291676203554744,3.2043945983061803,-0.33569848172737693
1499369123542,0.6408789196611906,1.3733119707026162,-0.15259021896690683
1499369123558,1.0681315327688026,0.45777065690094787,-0.03051804379333589
1499369123574,2.410925459678083,0.6408789196611906,0.7629510948347615
1499369123590,4.364080262455218,-0.7019150072480898,2.166781109330941
1499369123606,6.195162890058782,-2.655069810025225,3.5095750362402214
1499369123622,6.134126802471883,-5.584802014190927,3.692683299000464
1499369123638,4.669260700389032,-8.087281605249018,3.692683299000464
1499369123654,2.5940337224383256,-8.087281605249018,3.2654306858930795
1499369123670,1.0070954451819034,-8.209353780422589,2.04470893415737
1499369123686,1.4953841458761872,-3.3875028610666504,0.7019150072480898
1499369123702,2.532997634851654,3.7537193865873633,-0.9460593575952316
1499369123718,2.8992141603723667,8.758678568703772,-1.8616006713969
1499369123734,2.8381780727854675,10.955977721828049,-1.8005645838102282
1499369123750,1.8616006713969,9.185931181811156,-2.288853284504512
1499369123766,0.213626306553806,6.744487678339738,-2.5940337224383256
1499369123782,-0.45777065690094787,5.889982452124741,-1.6174563210497581
1499369123798,-0.15259021896690683,5.3406576638437855,-0.9460593575952316
1499369123814,1.2512397955290453,3.997863736934505,-0.5188067444876197
1499369123830,2.166781109330941,2.5940337224383256,-0.3967345693140487
1499369123846,3.0823224231326094,3.3264667734797513,-1.2512397955290453
1499369123862,2.8992141603723667,1.3733119707026162,-2.04470893415737
1499369123878,4.119935912108076,-0.5798428320745188,-0.6408789196611906
1499369123894,5.401693751430457,-3.936827649347606,1.4343480582895154
1499369123910,6.012054627298312,-7.354848554207592,2.9602502479590385
1499369123926,6.378271152819025,-5.889982452124741,5.157549401083315
1499369123942,6.439307240405924,-3.1433585107195086,3.3264667734797513
1499369123958,7.11070420386045,3.692683299000464,0.213626306553806
1499369123974,7.476920729381163,7.904173342488775,-0.5798428320745188
1499369123990,6.195162890058782,5.706874189364498,0.2746623941404778
1499369124006,4.669260700389032,1.3733119707026162,0.3967345693140487
1499369124022,2.655069810025225,-0.15259021896690683,-0.45777065690094787
1499369124038,0.15259021896690683,0.6408789196611906,-1.2512397955290453
1499369124054,-0.9460593575952316,2.8381780727854675,-1.0681315327688026
1499369124070,-0.33569848172737693,6.195162890058782,-0.6408789196611906
1499369124086,0.2746623941404778,8.819714656290444,-1.0681315327688026
1499369124102,-0.5188067444876197,8.575570305943302,-1.1902037079423735
1499369124118,-1.6174563210497581,5.76791027695117,-0.2746623941404778
1499369124134,-2.3498893720911838,3.6316472114137923,0.5188067444876197
1499369124150,0.09155413138023505,3.2043945983061803,-0.213626306553806
1499369124166,2.227817196917613,0.9460593575952316,0.7629510948347615
1499369124182,4.180971999694748,-0.33569848172737693,1.1902037079423735
1499369124198,5.462729839017356,0.2746623941404778,0.7629510948347615
1499369124214,6.317235065232353,-0.09155413138023505,-0.213626306553806
1499369124230,7.4158846417944915,-0.45777065690094787,-0.7629510948347615
1499369124246,9.430075532158298,-0.5798428320745188,-1.5564202334630863
1499369124262,11.505302510109004,0.45777065690094787,-1.3122758831159445
1499369124278,12.298771648737329,1.739528496223329,-0.9460593575952316
1499369124294,10.772869459067579,5.3406576638437855,-1.4343480582895154
1499369124310,7.660028992141633,12.970168612191856,-3.6316472114137923
1499369124326,6.378271152819025,18.402380407415876,-7.2938124666209205
1499369124342,6.927595941100208,21.33211261158158,-9.979400320439481
1499369124358,6.622415503166167,21.820401312275862,-10.528725108720437
1499369124374,6.073090714885211,16.937514305333025,-11.322194247348762
1499369124390,5.95101853971164,11.383230334935433,-13.397421225299468
1499369124406,5.3406576638437855,7.782101167315204,-15.411612115663274
1499369124422,4.60822461280236,8.026245517662346,-16.571297779812312
1499369124438,2.410925459678083,9.73525597009234,-16.815442130159454
1499369124454,0.6408789196611906,13.031204699778755,-16.1440451667047
1499369124470,-0.2746623941404778,14.557106889448278,-14.92332341496899
1499369124486,1.5564202334630863,16.571297779812312,-14.251926451514464
1499369124502,6.134126802471883,17.42580300602731,-14.740215152208748
1499369124518,9.979400320439481,17.42580300602731,-15.655756466010416
1499369124534,11.871519035629717,16.998550392919697,-15.899900816357558
1499369124550,11.383230334935433,15.838864728770886,-13.64156557564661
1499369124566,9.979400320439481,14.129854276340893,-9.185931181811156
1499369124582,8.270389868009488,11.810482948043045,-5.096513313496644
1499369124598,6.927595941100208,11.444266422522333,-2.655069810025225
1499369124614,6.561379415579495,13.336385137712568,-1.8005645838102282
1499369124630,6.073090714885211,21.57625696192872,-4.180971999694748
1499369124646,4.730296787975931,27.252613107499656,-9.002822919050914
1499369124662,4.730296787975931,29.08369573510322,-12.726024261844714
1499369124678,5.889982452124741,29.14473182269012,-14.129854276340893
1499369124694,6.927595941100208,25.970855268177274,-13.45845731288614
1499369124710,6.744487678339738,20.477607385366582,-11.139085984588291
1499369124726,4.730296787975931,14.129854276340893,-7.721065079728305
1499369124742,2.4719615472647547,9.430075532158298,-4.303044174868319
1499369124758,1.739528496223329,6.134126802471883,-2.532997634851654
1499369124774,1.8616006713969,4.303044174868319,-1.739528496223329
1499369124790,2.4719615472647547,4.669260700389032,-1.2512397955290453
1499369124806,2.3498893720911838,6.439307240405924,-0.7629510948347615
1499369124822,1.5564202334630863,7.721065079728305,-0.15259021896690683
1499369124838,1.6784924086366573,8.392462043183059,-0.33569848172737693
1499369124854,1.983672846570471,9.308003356984727,-0.9460593575952316
1499369124870,1.9226367589837992,8.880750743877343,-0.7629510948347615
1499369124886,1.739528496223329,6.683451590753066,-0.7019150072480898
1499369124902,1.0070954451819034,5.2185854886702145,-0.45777065690094787
1499369124918,0.7629510948347615,3.875791561760934,-0.7019150072480898
1499369124934,1.3733119707026162,2.7771419851987957,-0.8239871824216607
1499369124950,2.166781109330941,1.6174563210497581,-0.3967345693140487
1499369124966,2.655069810025225,1.5564202334630863,0.03051804379333589
1499369124982,2.4719615472647547,1.983672846570471,0.3967345693140487
1499369124998,2.105745021744042,2.532997634851654,0.45777065690094787
1499369125014,1.5564202334630863,3.936827649347606,0.6408789196611906
1499369125030,1.6784924086366573,5.889982452124741,0.9460593575952316
1499369125046,2.410925459678083,6.683451590753066,0.6408789196611906
1499369125062,2.7771419851987957,6.378271152819025,0.15259021896690683
1499369125078,2.4719615472647547,5.706874189364498,-0.03051804379333589
1499369125094,1.8616006713969,5.401693751430457,-0.5188067444876197
1499369125110,1.6784924086366573,5.462729839017356,-0.8239871824216607
1499369125126,2.227817196917613,5.95101853971164,-1.1291676203554744
1499369125142,3.0212863355459376,6.256198977645454,-1.6784924086366573
1499369125158,3.5095750362402214,5.523765926604028,-1.983672846570471
1499369125174,3.2654306858930795,3.7537193865873633,-1.6784924086366573
1499369125190,2.655069810025225,3.4485389486533222,-1.3733119707026162
1499369125206,2.410925459678083,5.279621576256886,-1.8616006713969
1499369125222,3.2043945983061803,5.95101853971164,-1.6174563210497581
1499369125238,3.2654306858930795,8.148317692835917,-1.4953841458761872
1499369125254,2.105745021744042,10.833905546654478,-1.6174563210497581
1499369125270,1.5564202334630863,10.89494163424115,-2.04470893415737
1499369125286,1.4343480582895154,11.322194247348762,-2.8992141603723667
1499369125302,1.983672846570471,9.369039444571627,-3.0212863355459376
1499369125318,1.2512397955290453,5.645838101777599,-2.288853284504512
1499369125334,0.213626306553806,3.814755474174035,-2.532997634851654
1499369125350,-0.03051804379333589,4.486152437628789,-3.0212863355459376
1499369125366,1.2512397955290453,5.096513313496644,-3.1433585107195086
1499369125382,2.7771419851987957,5.157549401083315,-1.983672846570471
1499369125398,3.7537193865873633,4.547188525215461,-0.7629510948347615
1499369125414,4.486152437628789,2.655069810025225,0.3967345693140487
1499369125430,4.852368963149502,-0.33569848172737693,2.655069810025225
1499369125446,5.096513313496644,-2.410925459678083,4.547188525215461
1499369125462,5.523765926604028,-3.3875028610666504,6.195162890058782
1499369125478,5.523765926604028,-3.3875028610666504,7.598992904554734
1499369125494,5.096513313496644,-1.4343480582895154,8.026245517662346
1499369125510,3.875791561760934,1.0070954451819034,7.476920729381163
1499369125526,2.04470893415737,3.814755474174035,5.279621576256886
1499369125542,0.5188067444876197,8.33142595559616,2.105745021744042
1499369125558,-0.3967345693140487,11.932555123216616,0.213626306553806
1499369125574,1.4343480582895154,11.566338597695903,-0.45777065690094787
1499369125590,3.3264667734797513,9.246967269398056,-0.09155413138023505
1499369125606,2.7771419851987957,6.805523765926637,0.03051804379333589
1499369125622,0.8239871824216607,8.392462043183059,-1.3733119707026162
1499369125638,0.7629510948347615,11.749446860456146,-4.486152437628789
1499369125654,3.0212863355459376,11.932555123216616,-6.805523765926637
1499369125670,5.523765926604028,9.918364232852582,-7.17174029144735
1499369125686,8.087281605249018,8.209353780422589,-7.049668116273779
1499369125702,8.026245517662346,6.9886320286868795,-5.096513313496644
1499369125718,4.791332875562603,4.60822461280236,-2.5940337224383256
1499369125734,1.6784924086366573,0.213626306553806,-0.5188067444876197
1499369125750,2.655069810025225,-2.4719615472647547,0.7019150072480898
1499369125766,4.486152437628789,-2.04470893415737,1.739528496223329
1499369125782,4.730296787975931,-0.03051804379333589,3.2043945983061803
1499369125798,3.814755474174035,-0.2746623941404778,4.669260700389032
1499369125814,3.875791561760934,-0.8850232700083325,5.279621576256886
1499369125830,4.852368963149502,-0.5188067444876197,6.622415503166167
1499369125846,5.706874189364498,-0.3967345693140487,9.185931181811156
1499369125862,5.645838101777599,-5.462729839017356,12.4208438239109
1499369125878,6.012054627298312,-11.566338597695903,17.853055619134693
1499369125894,7.660028992141633,-18.158236057068734,23.346303501945386
1499369125910,12.298771648737329,-23.7125200274661,29.51094834821083
1499369125926,15.838864728770886,-24.444953078507524,37.811856260013656
1499369125942,18.280308232242305,-27.557793545433697,39.58190280003032
1499369125958,19.867246509498727,-28.412298771648693,39.154650186922936
1499369125974,19.501029983978015,-20.965896086060866,41.596093690394355
1499369125990,19.562066071564686,-14.862287327382319,41.35194934004721
1499369126006,18.76859693293659,-11.20012207217519,37.1404592965589
1499369126022,15.716792553597315,-3.3264667734797513,28.839551384756078
1499369126038,11.566338597695903,4.974441138323073,18.646524757763018
1499369126054,9.369039444571627,18.76859693293659,14.373998626688035
1499369126070,8.51453421835663,19.9282825970854,7.11070420386045
1499369126086,10.284580758373295,17.059586480506596,2.227817196917613
1499369126102,12.4208438239109,7.049668116273779,2.105745021744042
1499369126118,12.481879911497572,-6.500343327992596,4.180971999694748
1499369126134,11.139085984588291,-13.519493400473038,6.134126802471883
1499369126150,7.904173342488775,-11.07804989700162,5.584802014190927
1499369126166,4.974441138323073,-3.2654306858930795,1.2512397955290453
1499369126182,3.692683299000464,5.3406576638437855,-1.4953841458761872
1499369126198,2.7161058976118966,11.810482948043045,-3.5095750362402214
1499369126214,2.227817196917613,12.054627298390187,-3.814755474174035
1499369126230,1.1902037079423735,9.613183794918768,-1.1291676203554744
1499369126246,0.03051804379333589,5.279621576256886,-0.45777065690094787
1499369126262,0.15259021896690683,1.8005645838102282,-0.5798428320745188
1499369126278,0.5188067444876197,-0.213626306553806,0.03051804379333589
1499369126294,0.15259021896690683,-0.9460593575952316,0.15259021896690683
1499369126310,-0.2746623941404778,-0.8850232700083325,-0.213626306553806
1499369126326,-0.2746623941404778,-0.5798428320745188,-0.6408789196611906
1499369126342,-0.03051804379333589,-0.33569848172737693,-1.1902037079423735
1499369126358,0.213626306553806,1.0681315327688026,-1.4343480582895154
1499369126374,1.0070954451819034,2.8381780727854675,-1.3733119707026162
1499369126390,2.3498893720911838,4.119935912108076,-1.3733119707026162
1499369126406,3.0212863355459376,4.60822461280236,-1.6784924086366573
1499369126422,2.532997634851654,5.706874189364498,-1.739528496223329
1499369126438,1.4953841458761872,5.645838101777599,-1.5564202334630863
1499369126454,0.8850232700083325,5.096513313496644,-1.9226367589837992
1499369126470,0.8239871824216607,5.706874189364498,-1.983672846570471
1499369126486,0.7629510948347615,5.95101853971164,-1.3733119707026162
1499369126502,1.2512397955290453,5.828946364538069,-1.1291676203554744
1499369126518,1.983672846570471,4.730296787975931,-1.0070954451819034
1499369126534,2.3498893720911838,3.2654306858930795,0.09155413138023505
1499369126550,2.8992141603723667,3.4485389486533222,0.5188067444876197
1499369126566,3.5095750362402214,4.303044174868319,0.03051804379333589
1499369126582,3.692683299000464,3.997863736934505,-0.6408789196611906
1499369126598,3.2043945983061803,1.8616006713969,-1.1291676203554744
1499369126614,2.655069810025225,0.7629510948347615,-1.0070954451819034
1499369126630,2.04470893415737,1.3122758831159445,-0.5188067444876197
1499369126646,2.4719615472647547,3.0823224231326094,-0.15259021896690683
1499369126662,3.1433585107195086,4.547188525215461,-0.09155413138023505
1499369126678,2.9602502479590385,5.157549401083315,-0.15259021896690683
1499369126694,2.166781109330941,3.875791561760934,-0.03051804379333589
1499369126710,1.6784924086366573,1.8005645838102282,-0.09155413138023505
1499369126726,1.8005645838102282,0.9460593575952316,-0.213626306553806
1499369126742,2.105745021744042,1.3733119707026162,0.03051804379333589
1499369126758,2.5940337224383256,2.4719615472647547,0.3967345693140487
1499369126774,3.2043945983061803,3.814755474174035,0.3967345693140487
1499369126790,3.6316472114137923,4.669260700389032,0.3967345693140487
1499369126806,3.570611123826893,3.6316472114137923,0.8850232700083325
1499369126822,3.570611123826893,2.532997634851654,1.3122758831159445
1499369126838,3.875791561760934,1.6174563210497581,1.1902037079423735
1499369126854,4.119935912108076,0.33569848172737693,1.3733119707026162
1499369126870,4.364080262455218,-1.739528496223329,2.7161058976118966
1499369126886,4.547188525215461,-1.9226367589837992,5.0354772259097444
1499369126902,4.791332875562603,-0.213626306553806,8.026245517662346
1499369126918,5.462729839017356,0.213626306553806,12.4208438239109
1499369126934,5.462729839017356,-0.213626306553806,16.998550392919697
1499369126950,6.012054627298312,-0.5188067444876197,20.11139085984587
1499369126966,8.209353780422589,-1.1902037079423735,24.13977264057371
1499369126982,10.284580758373295,-3.0212863355459376,30.54856183718607
1499369126998,11.444266422522333,-5.76791027695117,35.85870145723652
1499369127014,11.322194247348762,-5.157549401083315,36.53009842069105
1499369127030,11.20012207217519,-2.8992141603723667,32.562752727550105
1499369127046,11.505302510109004,-2.7771419851987957,27.496757457846797
1499369127062,11.993591210803288,-6.744487678339738,24.689097428854666
1499369127078,11.139085984588291,-13.092240787365427,23.163195239185143
1499369127094,9.246967269398056,-14.312962539101136,22.980086976424673
1499369127110,7.598992904554734,-13.58052948805971,22.552834363317288
1499369127126,4.852368963149502,-13.153276874952326,19.317921721217544
1499369127142,0.7019150072480898,-9.67421988250544,14.557106889448278
1499369127158,-1.983672846570471,-4.42511635004189,8.697642481116873
1499369127174,-1.6174563210497581,-0.6408789196611906,4.852368963149502
1499369127190,1.0681315327688026,-1.2512397955290453,2.105745021744042
1499369127206,1.983672846570471,-1.983672846570471,0.03051804379333589
1499369127222,1.9226367589837992,-1.8616006713969,-1.0681315327688026
1499369127238,1.8005645838102282,-0.9460593575952316,-0.7019150072480898
1499369127254,1.1291676203554744,-0.8239871824216607,0.03051804379333589
1499369127270,0.03051804379333589,-1.4953841458761872,0.2746623941404778
1499369127286,-1.1902037079423735,-1.9226367589837992,-0.09155413138023505
1499369127302,-0.9460593575952316,-0.5798428320745188,-0.03051804379333589
1499369127318,0.09155413138023505,-1.0681315327688026,0.2746623941404778
1499369127334,1.3122758831159445,-1.3733119707026162,-0.03051804379333589
1499369127350,1.8616006713969,0.213626306553806,-0.45777065690094787
1499369127366,2.166781109330941,2.105745021744042,-0.7629510948347615
1499369127382,3.570611123826893,3.3875028610666504,-0.5798428320745188
1499369127398,4.852368963149502,2.227817196917613,-0.03051804379333589
1499369127414,5.279621576256886,1.1902037079423735,0.8239871824216607
1499369127430,5.2185854886702145,1.3122758831159445,1.8616006713969
1499369127446,6.073090714885211,1.4953841458761872,3.3875028610666504
1499369127462,6.927595941100208,0.45777065690094787,4.852368963149502
1499369127478,7.965209430075447,0.213626306553806,4.730296787975931
1499369127494,10.040436408026153,-0.8239871824216607,2.5940337224383256
1499369127510,14.129854276340893,-2.04470893415737,0.15259021896690683
1499369127526,18.097199969481835,-1.5564202334630863,-1.0681315327688026
1499369127542,19.745174334325156,2.5940337224383256,-0.33569848172737693
1499369127558,19.562066071564686,8.026245517662346,-0.6408789196611906
1499369127574,18.097199969481835,11.383230334935433,-1.739528496223329
1499369127590,15.838864728770886,11.505302510109004,-2.288853284504512
1499369127606,11.810482948043045,9.185931181811156,-1.8616006713969
1499369127622,7.721065079728305,5.76791027695117,-1.0070954451819034
1499369127638,4.669260700389032,2.4719615472647547,-0.7019150072480898
1499369127654,2.5940337224383256,1.5564202334630863,-1.1902037079423735
1499369127670,0.3967345693140487,2.5940337224383256,-1.0070954451819034
1499369127686,-1.6784924086366573,3.814755474174035,-0.7019150072480898
1499369127702,-2.8381780727854675,3.936827649347606,-0.03051804379333589
1499369127718,-2.166781109330941,3.570611123826893,1.2512397955290453
1499369127734,-1.1291676203554744,2.227817196917613,1.0681315327688026
1499369127750,0.3967345693140487,2.8992141603723667,-0.03051804379333589
1499369127766,1.983672846570471,3.814755474174035,-1.0070954451819034
1499369127782,2.5940337224383256,4.547188525215461,-0.33569848172737693
1499369127798,2.105745021744042,4.852368963149502,0.15259021896690683
1499369127814,1.739528496223329,5.0354772259097444,-0.213626306553806
1499369127830,2.105745021744042,3.7537193865873633,-0.7019150072480898
1499369127846,2.8992141603723667,1.8005645838102282,-0.8850232700083325
1499369127862,3.3264667734797513,2.04470893415737,-0.5188067444876197
1499369127878,3.6316472114137923,3.997863736934505,-0.2746623941404778
1499369127894,3.7537193865873633,4.9134050507361735,-0.09155413138023505
1499369127910,3.5095750362402214,4.303044174868319,-0.45777065690094787
1499369127926,3.0823224231326094,3.3875028610666504,-0.7629510948347615
1499369127942,2.9602502479590385,2.3498893720911838,-0.5798428320745188
1499369127958,3.5095750362402214,2.227817196917613,-0.2746623941404778
1499369127974,4.303044174868319,2.04470893415737,-0.09155413138023505
1499369127990,4.852368963149502,2.410925459678083,0.15259021896690683
1499369128006,5.279621576256886,8.697642481116873,0.09155413138023505
1499369128022,6.012054627298312,13.336385137712568,-0.5188067444876197
1499369128038,4.791332875562603,8.087281605249018,-0.6408789196611906
1499369128054,2.166781109330941,0.213626306553806,-0.33569848172737693
1499369128070,0.5798428320745188,-4.119935912108076,-0.2746623941404778
1499369128086,1.8616006713969,-1.739528496223329,-0.7629510948347615
1499369128102,4.364080262455218,3.997863736934505,-1.8005645838102282
1499369128118,6.439307240405924,7.049668116273779,-2.227817196917613
1499369128134,6.8665598535133086,6.744487678339738,-2.166781109330941
1499369128150,5.889982452124741,6.439307240405924,-1.983672846570471
1499369128166,3.997863736934505,7.049668116273779,-2.166781109330941
1499369128182,2.3498893720911838,8.270389868009488,-3.570611123826893
1499369128198,0.9460593575952316,8.51453421835663,-6.134126802471883
1499369128214,0.213626306553806,8.209353780422589,-8.026245517662346
1499369128230,-0.33569848172737693,5.76791027695117,-7.721065079728305
1499369128246,-0.5188067444876197,2.288853284504512,-4.42511635004189
1499369128262,-0.8239871824216607,0.2746623941404778,-1.3733119707026162
1499369128278,-0.7019150072480898,-0.03051804379333589,-0.45777065690094787
1499369128294,-0.5188067444876197,0.6408789196611906,-0.8239871824216607
1499369128310,-0.7019150072480898,2.7771419851987957,-2.04470893415737
1499369128326,-0.6408789196611906,5.0354772259097444,-2.532997634851654
1499369128342,-0.6408789196611906,4.42511635004189,-1.6174563210497581
1499369128358,0.33569848172737693,3.0823224231326094,-0.3967345693140487
1499369128374,0.5188067444876197,6.378271152819025,1.0681315327688026
1499369128390,1.6784924086366573,6.317235065232353,2.8992141603723667
1499369128406,2.04470893415737,2.227817196917613,3.4485389486533222
1499369128422,1.983672846570471,-2.8381780727854675,0.6408789196611906
1499369128438,2.105745021744042,-6.622415503166167,-1.1902037079423735
1499369128454,3.997863736934505,-6.744487678339738,-0.8850232700083325
1499369128470,6.012054627298312,-2.8381780727854675,0.7019150072480898
1499369128486,6.927595941100208,1.1902037079423735,1.1291676203554744
1499369128502,6.683451590753066,3.3875028610666504,-0.03051804379333589
1499369128518,5.157549401083315,3.0823224231326094,-1.739528496223329
1499369128534,3.2654306858930795,2.288853284504512,-3.0823224231326094
1499369128550,2.655069810025225,2.7161058976118966,-3.2043945983061803
1499369128566,2.8381780727854675,3.7537193865873633,-2.5940337224383256
1499369128582,3.1433585107195086,4.364080262455218,-1.0681315327688026
1499369128598,3.0212863355459376,5.279621576256886,0.5188067444876197
1499369128614,2.105745021744042,5.645838101777599,0.7629510948347615
1499369128630,1.3733119707026162,6.012054627298312,-0.3967345693140487
1499369128646,0.7019150072480898,6.195162890058782,-0.8850232700083325
1499369128662,0.15259021896690683,5.76791027695117,-0.5798428320745188
1499369128678,0.09155413138023505,4.180971999694748,-0.45777065690094787
1499369128694,0.5188067444876197,1.2512397955290453,-0.213626306553806
1499369128710,0.8850232700083325,-0.5798428320745188,0.213626306553806
1499369128726,1.6174563210497581,-0.15259021896690683,-0.6408789196611906
1499369128742,2.9602502479590385,1.6174563210497581,-0.9460593575952316
1499369128758,4.180971999694748,3.5095750362402214,-0.15259021896690683
1499369128774,4.42511635004189,4.974441138323073,0.7019150072480898
1499369128790,3.4485389486533222,7.354848554207592,1.3733119707026162
1499369128806,2.9602502479590385,7.17174029144735,1.3733119707026162
1499369128822,1.983672846570471,4.852368963149502,1.0070954451819034
1499369128838,0.8850232700083325,2.3498893720911838,-1.4343480582895154
1499369128854,0.213626306553806,-2.7161058976118966,-2.7161058976118966
1499369128870,0.8850232700083325,-7.354848554207592,-1.6784924086366573
1499369128886,1.983672846570471,-6.073090714885211,0.7629510948347615
1499369128902,3.4485389486533222,-1.739528496223329,0.8239871824216607
1499369128918,4.852368963149502,2.410925459678083,-0.8850232700083325
1499369128934,4.9134050507361735,4.60822461280236,-1.983672846570471
1499369128950,4.058899824521177,5.462729839017356,-1.8005645838102282
1499369128966,3.814755474174035,6.805523765926637,-1.1291676203554744
1499369128982,3.936827649347606,7.354848554207592,-0.5188067444876197
1499369128998,3.6316472114137923,6.439307240405924,0.09155413138023505
1499369129014,2.04470893415737,4.669260700389032,0.6408789196611906
1499369129030,0.2746623941404778,4.058899824521177,0.7629510948347615
1499369129046,-0.8850232700083325,4.547188525215461,-0.09155413138023505
1499369129062,-1.2512397955290453,6.744487678339738,-0.7019150072480898
1499369129078,-0.2746623941404778,8.33142595559616,-0.7629510948347615
1499369129094,0.213626306553806,3.7537193865873633,1.0681315327688026
1499369129110,-0.09155413138023505,-1.0681315327688026,-0.8850232700083325
1499369129126,0.6408789196611906,-6.073090714885211,-2.8381780727854675
1499369129142,1.8005645838102282,-7.049668116273779,-1.6174563210497581
1499369129158,3.2043945983061803,-3.6316472114137923,0.09155413138023505
1499369129174,4.730296787975931,2.04470893415737,-0.03051804379333589
1499369129190,5.0354772259097444,5.401693751430457,-1.5564202334630863
1499369129206,4.60822461280236,5.889982452124741,-3.1433585107195086
1499369129222,3.692683299000464,5.76791027695117,-3.3875028610666504
1499369129238,2.8381780727854675,5.828946364538069,-2.7161058976118966
1499369129254,2.532997634851654,5.401693751430457,-1.3122758831159445
1499369129270,1.983672846570471,4.852368963149502,-0.03051804379333589
1499369129286,1.0681315327688026,5.76791027695117,-0.15259021896690683
1499369129302,-0.15259021896690683,7.354848554207592,-1.739528496223329
1499369129318,-1.1902037079423735,6.073090714885211,-2.3498893720911838
1499369129334,-1.739528496223329,3.0212863355459376,-1.739528496223329
1499369129350,-1.9226367589837992,7.11070420386045,-0.5798428320745188
1499369129366,-0.3967345693140487,5.95101853971164,0.9460593575952316
1499369129382,-0.3967345693140487,1.6784924086366573,0.9460593575952316
1499369129398,-0.33569848172737693,-2.410925459678083,-1.9226367589837992
1499369129414,0.2746623941404778,-6.134126802471883,-2.227817196917613
1499369129430,1.4343480582895154,-5.462729839017356,-0.213626306553806
1499369129446,3.4485389486533222,-1.3733119707026162,0.7629510948347615
1499369129462,5.0354772259097444,2.410925459678083,0.5798428320745188
1499369129478,5.401693751430457,3.814755474174035,-0.5188067444876197
1499369129494,5.0354772259097444,4.9134050507361735,-1.6784924086366573
1499369129510,4.364080262455218,5.645838101777599,-2.04470893415737
1499369129526,3.7537193865873633,5.462729839017356,-1.2512397955290453
1499369129542,3.3875028610666504,5.279621576256886,-0.09155413138023505
1499369129558,2.8992141603723667,5.279621576256886,1.0070954451819034
1499369129574,2.227817196917613,5.3406576638437855,0.9460593575952316
1499369129590,1.3122758831159445,5.2185854886702145,0.33569848172737693
1499369129606,0.5798428320745188,5.3406576638437855,-0.03051804379333589
1499369129622,0.2746623941404778,5.157549401083315,-0.213626306553806
1499369129638,0.5188067444876197,3.692683299000464,0.03051804379333589
1499369129654,0.8239871824216607,1.9226367589837992,0.2746623941404778
1499369129670,0.9460593575952316,1.739528496223329,-0.15259021896690683
1499369129686,1.6174563210497581,1.4953841458761872,-0.6408789196611906
1499369129702,2.9602502479590385,0.9460593575952316,-0.6408789196611906
1499369129718,3.997863736934505,1.6784924086366573,-0.3967345693140487
1499369129734,4.486152437628789,2.3498893720911838,0.03051804379333589
1499369129750,4.669260700389032,3.0823224231326094,0.33569848172737693
1499369129766,4.42511635004189,4.242008087281647,0.15259021896690683
1499369129782,4.119935912108076,4.791332875562603,-0.213626306553806
1499369129798,3.814755474174035,4.180971999694748,-0.2746623941404778
1499369129814,3.1433585107195086,2.8992141603723667,-0.213626306553806
1499369129830,2.227817196917613,1.3733119707026162,-0.09155413138023505
1499369129846,1.6784924086366573,0.6408789196611906,0.2746623941404778
1499369129862,1.6784924086366573,1.3122758831159445,0.2746623941404778
1499369129878,2.166781109330941,2.9602502479590385,0.09155413138023505
1499369129894,2.532997634851654,3.5095750362402214,-0.03051804379333589
1499369129910,2.5940337224383256,3.2043945983061803,-0.03051804379333589
1499369129926,2.5940337224383256,3.4485389486533222,-0.03051804379333589
1499369129942,2.410925459678083,5.096513313496644,-0.09155413138023505
1499369129958,2.288853284504512,4.9134050507361735,0.15259021896690683
1499369129974,1.983672846570471,4.119935912108076,0.15259021896690683
1499369129990,1.6784924086366573,3.6316472114137923,0.09155413138023505
1499369130006,1.3733119707026162,3.4485389486533222,-0.03051804379333589
1499369130022,1.4343480582895154,2.7161058976118966,-0.213626306553806
1499369130038,1.983672846570471,1.739528496223329,-0.3967345693140487
1499369130054,2.7161058976118966,1.9226367589837992,-0.5798428320745188
1499369130070,3.0823224231326094,3.875791561760934,-0.7629510948347615
1499369130086,3.4485389486533222,6.317235065232353,-0.7629510948347615
1499369130102,3.692683299000464,6.805523765926637,-0.7629510948347615
1499369130118,3.5095750362402214,4.974441138323073,-0.7019150072480898
1499369130133,3.5095750362402214,2.7771419851987957,-0.33569848172737693
1499369130149,3.7537193865873633,2.227817196917613,0.2746623941404778
1499369130165,3.875791561760934,2.9602502479590385,0.213626306553806
1499369130181,3.2654306858930795,4.974441138323073,-0.3967345693140487
1499369130197,2.04470893415737,6.622415503166167,-1.0070954451819034
1499369130213,1.0070954451819034,6.9886320286868795,-1.4343480582895154
1499369130229,0.8850232700083325,5.2185854886702145,-2.04470893415737
1499369130245,1.0681315327688026,3.814755474174035,-2.288853284504512
1499369130261,1.2512397955290453,3.0212863355459376,-1.739528496223329
1499369130277,1.3122758831159445,3.2043945983061803,-1.5564202334630863
1499369130293,1.2512397955290453,4.669260700389032,-2.105745021744042
1499369130309,1.2512397955290453,6.744487678339738,-3.814755474174035
1499369130325,0.8239871824216607,11.444266422522333,-5.462729839017356
1499369130341,0.3967345693140487,14.373998626688035,-8.270389868009488
1499369130357,0.09155413138023505,15.594720378423744,-10.89494163424115
1499369130373,0.213626306553806,13.885709925993751,-13.275349050125897
1499369130389,1.4343480582895154,13.397421225299468,-16.44922560463874
1499369130405,1.983672846570471,12.359807736324,-20.721751735713724
1499369130421,1.983672846570471,10.284580758373295,-23.590447852292527
1499369130437,2.7161058976118966,10.223544670786623,-25.17738612954895
1499369130453,4.60822461280236,12.054627298390187,-24.505989166094423
1499369130469,6.256198977645454,14.862287327382319,-21.14900434882111
1499369130485,7.476920729381163,16.632333867398984,-17.914091706721592
1499369130501,7.660028992141633,15.10643167772946,-14.312962539101136
1499369130517,6.9886320286868795,8.6366063935302,-10.223544670786623
1499369130533,4.791332875562603,-0.15259021896690683,-5.2185854886702145
1499369130549,1.2512397955290453,-6.805523765926637,-0.8850232700083325
1499369130565,-2.5940337224383256,-7.782101167315204,1.1902037079423735
1499369130581,-5.645838101777599,-5.584802014190927,1.9226367589837992
1499369130597,-7.11070420386045,-3.1433585107195086,1.9226367589837992
1499369130613,-7.354848554207592,-0.3967345693140487,2.3498893720911838
1499369130629,-7.782101167315204,-0.6408789196611906,3.5095750362402214
1499369130645,-9.246967269398056,-6.317235065232353,4.60822461280236
1499369130661,-11.871519035629717,-17.730983443961122,4.9134050507361735
1499369130677,-17.914091706721592,-42.81681544213029,4.058899824521177
1499369130693,-27.374685282673227,-76.20355535210183,3.814755474174035
1499369130709,-36.4690623331046,-102.44907301441981,3.692683299000464
1499369130725,-44.8310063324941,-108.18646524757764,1.4953841458761872
1499369130741,-50.32425421530479,-100.74006256198982,-5.279621576256886
1499369130757,-55.75646601052881,-90.05874723430225,-10.833905546654478
1499369130773,-63.996337834744736,-98.97001602197315,-13.702601663233281
1499369130789,-60.21210040436404,-122.83512626840616,-9.491111619745197
1499369130805,-38.30014496070817,-116.18219272144665,-2.166781109330941
1499369130821,-18.158236057068734,-99.09208819714672,7.782101167315204
1499369130837,-1.5564202334630863,-82.30716411078038,21.39314869916825
1499369130853,9.246967269398056,-66.7429617761502,33.23414969100463
1499369130869,12.909132524605184,-53.376058594644064,42.14541847867531
1499369130885,12.787060349431613,-36.34699015793103,45.502403295948625
1499369130901,11.566338597695903,-18.036163881895163,46.17380025940315
1499369130917,9.918364232852582,4.730296787975931,45.86861982146934
1499369130933,11.139085984588291,21.69832913710229,42.45059891660935
1499369130949,14.557106889448278,32.74586099031035,38.30014496070794
1499369130965,21.210040436408008,34.57694361791391,33.17311360341796
1499369130981,22.79697871366443,27.86297398336751,31.219958800640825
1499369130997,19.684138246738257,14.80125123979542,27.069504844739413
1499369131013,21.759365224688963,-24.200808728160382,12.359807736324
1499369131029,35.43144884412891,-5.584802014190927,-3.692683299000464
1499369131045,38.54428931105508,15.10643167772946,-26.7032883192187
1499369131061,39.64293888761722,14.068818188753994,-33.11207751583129
1499369131077,34.57694361791391,-0.09155413138023505,-25.116350041962278
1499369131093,20.294499122606112,-21.57625696192872,-17.059586480506596
1499369131109,17.120622568093268,-5.76791027695117,-26.031891355763946
1499369131125,27.679865720607268,50.56839856565193,-45.563439383535524
1499369131141,40.68055237659246,87.9224841687651,-47.39452201113909
1499369131157,37.628747997253186,71.8699931334404,-31.464103150988194
1499369131173,17.914091706721592,41.10780498970007,-15.045395590142562
1499369131189,10.406652933546866,33.844510566872486,-10.89494163424115
1499369131205,19.9282825970854,37.9949645227739,-16.32715342946517
1499369131221,33.17311360341796,38.17807278553437,-20.05035477225897
1499369131237,41.16884107728674,28.229190508888223,-20.35553521019301
1499369131253,39.39879453727008,14.98435950255589,-20.782787823300396
1499369131269,28.412298771648693,16.571297779812312,-19.9282825970854
1499369131285,14.679179064621849,12.359807736324,-15.655756466010416
1499369131301,-1.4953841458761872,4.547188525215461,-3.4485389486533222
1499369131317,-25.17738612954895,10.406652933546866,15.10643167772946
1499369131333,-44.464789806973386,32.19653620202939,31.219958800640825
1499369131349,-53.07087815671025,72.29724574654801,50.446326390478134
1499369131365,-63.81322957198449,118.80674448767832,68.26886396581995
1499369131381,-73.51796749828327,153.23109788662532,76.87495231555658
1499369131397,-84.99275196459894,154.26871137560056,78.33981841763944
1499369131413,-106.41641870756098,128.02319371328304,79.68261234454894
1499369131429,-126.31418326085304,123.26237888151354,86.57969024185559
1499369131445,-132.66193636987873,106.96574349584216,99.58037689784078
1499369131461,-132.7840085450523,73.39589532310993,110.62790875104929
1499369131477,-133.45540550850683,52.277409018081926,122.28580148012497
1499369131493,-123.68963149462115,35.79766536964962,127.59594110017542
1499369131509,-105.9281300068667,36.346990157930804,115.81597619592594
1499369131525,-88.77698939497964,56.97718776226429,94.39230945296413
1499369131541,-78.33981841763944,67.78057526512566,66.62088960097662
1499369131557,-73.57900358587017,69.24544136720851,37.567711909666514
1499369131573,-73.09071488517588,62.83665217059615,18.280308232242305
1499369131589,-69.48958571755543,47.45555809872576,12.359807736324
1499369131605,-61.06660563057903,35.248340581368666,11.749446860456146
1499369131621,-49.897001602197406,33.17311360341796,12.115663385976859
1499369131637,-31.89135576409558,0.03051804379333589,12.664988174258042
1499369131653,-20.538643472953254,-54.35263599603263,26.153963530937517
1499369131669,-28.107118333714652,-53.92538338292525,27.252613107499656
1499369131685,-33.41725795376533,-47.69970244907313,19.684138246738257
1499369131701,-23.041123064011572,-39.337758449683406,13.092240787365427
1499369131717,-3.4485389486533222,-6.683451590753066,5.096513313496644
1499369131733,0.5798428320745188,3.4485389486533222,-4.303044174868319
1499369131749,-7.17174029144735,-3.2043945983061803,-7.2938124666209205
1499369131765,-12.542915999084471,-8.270389868009488,-6.683451590753066
1499369131781,-16.815442130159454,-5.0354772259097444,-13.275349050125897
1499369131797,-19.317921721217544,9.124895094224485,-23.224231326771815
1499369131813,-17.181658655680167,25.665674830243233,-28.229190508888223
1499369131829,-14.312962539101136,36.469062333104375,-26.947432669565842
1499369131845,-13.702601663233281,35.004196231021524,-24.567025253681095
1499369131861,-16.08300907911803,28.16815442130155,-29.32784008545036
1499369131877,-7.721065079728305,42.20645456626221,-36.774242771038416
1499369131893,-17.24269474326684,53.62020294499098,-30.975814450293683
1499369131909,-19.9282825970854,69.18440527962184,-34.149691004806755
1499369131925,-24.505989166094423,58.80827038986763,-33.35622186617843
1499369131941,-39.215686274509835,42.69474326695649,-27.252613107499656
1499369131957,-42.084382391088866,43.61028458075816,-12.909132524605184
1499369131973,-27.008468757152514,102.44907301441981,1.2512397955290453
1499369131989,33.11207751583106,153.10902571145198,-0.5798428320745188
1499369132005,101.71663996337838,173.43404287785143,-17.79201953154802
1499369132021,156.09979400320435,136.81239032578014,-34.88212405584818
1499369132037,186.43472953383662,57.95376516365286,-54.840924696726915
1499369132053,193.0266269932099,-21.39314869916825,-87.12901503013654
1499369132069,170.6874189364462,-85.54207675288012,-133.08918898298612
1499369132085,125.45967803463782,-145.66262302586392,-168.6121919584955
1499369132101,74.31143663691182,-178.86625467307545,-158.78538185702314
1499369132117,27.374685282673227,-144.31982909895464,-126.0700389105059
1499369132133,-35.00419623102175,-70.58823529411757,-125.64278629739829
1499369132149,-104.52429999237052,-3.2654306858930795,-122.2858014801252
1499369132165,-145.60158693827725,35.79766536964962,-91.76775768673224
1499369132181,-140.3524834058137,43.30510414282435,-62.0431830319676
1499369132197,-109.40718699931335,51.36186770428003,-49.591821164263365
1499369132213,-83.64995803768966,57.64858472571905,-26.459143968871558
1499369132229,-67.84161135271233,53.37605859464384,-2.7161058976118966
1499369132245,-39.398794537270305,59.96795605401667,15.411612115663274
1499369132261,1.739528496223329,-15.350576028076603,32.80689707789725
1499369132277,23.590447852292527,-76.99702449073015,32.07446402685582
1499369132293,22.919050888838,-69.611657892729,3.6316472114137923
1499369132309,30.670634012359642,-87.92248416876464,-20.477607385366582
1499369132325,40.68055237659246,-77.60738536659801,-12.664988174258042
1499369132341,45.99069199664291,-49.95803768978408,-8.270389868009488
1499369132357,43.48821240558459,-28.656443121995835,10.040436408026153
1499369132373,39.45983062485675,-27.557793545433697,37.93392843518723
1499369132389,36.469062333104375,-30.30441748683893,47.943846799420044
1499369132405,32.92896925307082,-43.305104142824575,37.87289234760033
1499369132421,35.79766536964962,-60.57831692988475,29.633020523384403
1499369132437,39.45983062485675,-69.06233310444804,29.571984435797503
1499369132453,38.78843366140222,-69.73373006790257,29.816128786144645
1499369132469,34.2717631799801,-62.8976882581826,33.96658274204606
1499369132485,27.313649195086555,-53.98641947051192,44.89204242008077
1499369132501,28.229190508888223,-43.305104142824575,52.70466163118908
1499369132517,39.032578011749365,-28.656443121995835,53.131914244296695
1499369132533,41.474021515220784,-30.30441748683893,46.662088960097435
1499369132549,32.62378881513678,-41.22987716487387,42.02334630350174
1499369132565,24.933241779201808,-56.244754711223095,44.403753719386486
1499369132581,42.20645456626221,-31.952391851682478,49.042496375981955
1499369132597,45.68551155870887,-7.2938124666209205,60.88349736781856
1499369132613,36.53009842069105,-0.2746623941404778,64.97291523613376
1499369132629,26.58121614404513,-2.3498893720911838,52.64362554360241
1499369132645,20.721751735713724,7.660028992141633,34.39383535515367
1499369132661,17.36476691844041,16.937514305333025,23.346303501945386
1499369132677,3.997863736934505,8.819714656290444,27.86297398336751
1499369132693,-5.401693751430457,-7.843137254901876,29.571984435797503
1499369132709,-10.467689021133765,-10.284580758373295,21.637293049515392
1499369132725,-15.777828641183987,-12.726024261844714,14.740215152208748
1499369132741,-15.167467765316132,-9.246967269398056,9.85732814526591
1499369132757,-12.23773556115043,-15.10643167772946,2.166781109330941
1499369132773,-8.575570305943302,-27.74090180819394,-1.6174563210497581
1499369132789,-6.134126802471883,-29.449912260623933,0.3967345693140487
1499369132805,1.2512397955290453,-22.49179827573039,-1.8616006713969
1499369132821,14.618142977035177,-13.946746013580423,-4.852368963149502
1499369132837,18.280308232242305,-15.167467765316132,-0.8850232700083325
1499369132853,13.885709925993751,-18.402380407415876,9.67421988250544
1499369132869,16.02197299153113,-6.744487678339738,13.64156557564661
1499369132885,32.501716639963206,8.819714656290444,7.965209430075447
1499369132901,44.403753719386486,6.256198977645454,4.486152437628789
1499369132917,50.56839856565193,-8.33142595559616,4.303044174868319
1499369132933,54.596780346379546,-23.529411764705856,1.6174563210497581
1499369132949,58.01480125123953,-38.23910887312127,-6.744487678339738
1499369132965,53.131914244296695,-56.244754711223095,-13.946746013580423
1499369132981,44.95307850766744,-65.64431219958806,-13.946746013580423
1499369132997,31.097886625467254,-81.8188754100861,-21.39314869916825
1499369133013,15.411612115663274,-97.74929427023744,-31.219958800640825
1499369133029,-3.6316472114137923,-111.7875944151981,-39.15465018692316
1499369133045,-25.23842221713585,-129.24391546501874,-40.86366063935316
1499369133061,-41.35194934004744,-148.47028305485605,-37.62874799725341
1499369133077,-54.04745555809882,-140.6576638437475,-25.42153047989609
1499369133093,-59.967956054016895,-128.69459067673756,-12.664988174258042
1499369133109,-65.76638437476163,-124.66620889600972,-16.32715342946517
1499369133125,-70.77134355687804,-131.13603418020898,-32.56275272755033
1499369133141,-78.21774624246586,-157.3205157549403,-50.08010986495765
1499369133157,-82.79545281147466,-189.42549782558945,-44.15960936903957
1499369133173,-79.74364843213539,-204.6845197222858,-24.933241779201808
1499369133189,-64.05737392233164,-173.6171511406119,-25.543602655069662
1499369133205,-48.79835202563527,-143.89257648584726,-36.28595407034413
1499369133221,-45.563439383535524,-138.39932860303657,-43.79339284351886
1499369133237,-53.376058594644064,-159.63988708323814,-45.44136720836195
1499369133253,-60.45624475471118,-180.7583733882659,-43.244068055237676
1499369133269,-58.3199816891738,-192.41626611734182,-38.30014496070817
1499369133285,-43.91546501869243,-184.115358205539,-32.6848249027239
1499369133301,-30.4264896620125,-163.72930495155265,-30.182345311665358
1499369133317,-25.48256656748299,-158.23605706874196,-25.48256656748299
1499369133333,-27.374685282673227,-168.42908369573524,-18.58548867017612
1499369133349,-27.008468757152514,-150.66758220798033,-12.848096437018285
1499369133365,-22.8580148012511,-115.44975967040523,-12.4208438239109
1499369133381,-15.594720378423744,-106.05020218204027,-4.303044174868319
1499369133397,-8.087281605249018,-114.22903791866952,6.439307240405924
1499369133413,2.655069810025225,-121.49233234149688,2.9602502479590385
1499369133429,15.228503852903032,-145.72365911345082,-1.3122758831159445
1499369133445,26.764324406805372,-173.9833676661326,6.439307240405924
1499369133461,34.2717631799801,-179.842832074464,19.439993896391115
1499369133477,31.70824750133511,-158.23605706874196,27.496757457846797
1499369133493,23.346303501945386,-134.67612726024254,29.08369573510322
1499369133509,23.407339589532285,-117.46395056076904,25.848783093003703
1499369133525,25.848783093003703,-105.80605783169312,13.946746013580423
1499369133541,24.750133516441565,-92.25604638742652,3.875791561760934
1499369133557,19.745174334325156,-77.79049362935825,3.3875028610666504
1499369133573,11.505302510109004,-59.29655909056237,1.8005645838102282
1499369133589,8.819714656290444,-42.20645456626244,-6.561379415579495
1499369133605,10.955977721828049,-28.534370946822264,-16.02197299153113
1499369133621,12.787060349431613,-23.041123064011572,-16.754406042572555
1499369133637,13.45845731288614,-7.782101167315204,-11.505302510109004
1499369133653,14.557106889448278,11.810482948043045,-8.148317692835917
1499369133669,14.312962539101136,9.67421988250544,-7.721065079728305
1499369133685,9.918364232852582,1.1291676203554744,-10.650797283894008
1499369133701,5.2185854886702145,-9.430075532158298,-14.373998626688035
1499369133717,1.739528496223329,-17.36476691844041,-15.777828641183987
1499369133733,-1.1902037079423735,-25.36049439230942,-12.909132524605184
1499369133749,-2.3498893720911838,-27.496757457846797,-12.054627298390187
1499369133765,0.213626306553806,-20.05035477225897,-12.787060349431613
1499369133781,2.8992141603723667,-13.76363775082018,-12.970168612191856
1499369133797,4.60822461280236,-16.1440451667047,-11.383230334935433
1499369133813,2.5940337224383256,-18.646524757763018,-9.246967269398056
1499369133829,-0.45777065690094787,-10.89494163424115,-5.706874189364498
1499369133845,0.8850232700083325,1.4343480582895154,-3.7537193865873633
1499369133861,5.2185854886702145,2.166781109330941,-6.073090714885211
1499369133877,4.486152437628789,0.213626306553806,-7.2938124666209205
1499369133893,1.983672846570471,-2.105745021744042,-6.805523765926637
1499369133909,-0.5798428320745188,-9.185931181811156,-4.60822461280236
1499369133925,-1.9226367589837992,-10.101472495613052,-1.1902037079423735
1499369133941,-0.3967345693140487,-2.04470893415737,-3.4485389486533222
1499369133957,0.7629510948347615,6.744487678339738,-4.180971999694748
1499369133973,2.3498893720911838,9.063859006637585,-5.401693751430457
1499369133989,1.0070954451819034,8.819714656290444,-5.95101853971164
1499369134005,-4.119935912108076,3.1433585107195086,-2.5940337224383256
1499369134021,-4.364080262455218,-3.0823224231326094,1.0070954451819034
1499369134037,-0.33569848172737693,-10.467689021133765,1.4953841458761872
1499369134053,2.4719615472647547,-8.209353780422589,0.5188067444876197
1499369134069,4.547188525215461,-0.9460593575952316,-1.6174563210497581
1499369134085,4.852368963149502,3.997863736934505,-3.5095750362402214
1499369134101,1.9226367589837992,12.603952086671143,-4.119935912108076
1499369134117,-2.5940337224383256,21.57625696192872,-2.9602502479590385
1499369134133,-4.730296787975931,11.444266422522333,-1.6174563210497581
1499369134149,-1.6784924086366573,5.279621576256886,-0.15259021896690683
1499369134165,1.0070954451819034,6.378271152819025,-0.213626306553806
1499369134181,1.6784924086366573,7.537956816968062,-1.0070954451819034
1499369134197,1.3733119707026162,7.049668116273779,-1.3122758831159445
1499369134213,-1.0681315327688026,2.7771419851987957,-1.1291676203554744
1499369134229,-3.2043945983061803,-3.3875028610666504,-0.09155413138023505
1499369134245,-4.058899824521177,-7.782101167315204,0.9460593575952316
1499369134261,-2.7161058976118966,-3.997863736934505,2.288853284504512
1499369134277,-2.5940337224383256,-2.04470893415737,1.1291676203554744
1499369134293,-0.5188067444876197,0.6408789196611906,0.7629510948347615
1499369134309,1.5564202334630863,4.547188525215461,0.213626306553806
1499369134325,2.4719615472647547,7.660028992141633,0.03051804379333589
1499369134341,1.4343480582895154,4.791332875562603,0.213626306553806
1499369134357,0.7629510948347615,1.1291676203554744,0.09155413138023505
1499369134373,0.45777065690094787,0.3967345693140487,0.5188067444876197
1499369134389,-1.3733119707026162,-5.157549401083315,-0.15259021896690683
1499369134405,-1.0070954451819034,1.5564202334630863,-0.8239871824216607
1499369134421,1.4343480582895154,6.256198977645454,0.45777065690094787
1499369134437,3.814755474174035,2.8992141603723667,1.4953841458761872
1499369134453,5.157549401083315,1.3733119707026162,-0.15259021896690683
1499369134469,5.279621576256886,2.5940337224383256,-3.0212863355459376
1499369134485,4.852368963149502,4.974441138323073,-3.3875028610666504
1499369134501,4.42511635004189,3.7537193865873633,-3.2654306858930795
1499369134517,2.4719615472647547,-2.8992141603723667,-2.655069810025225
1499369134533,0.8239871824216607,-12.4208438239109,-1.1291676203554744
1499369134549,0.5798428320745188,-8.6366063935302,0.2746623941404778
1499369134565,0.8239871824216607,0.2746623941404778,0.3967345693140487
1499369134581,1.5564202334630863,8.819714656290444,-1.8616006713969
1499369134597,2.227817196917613,12.909132524605184,-6.622415503166167
1499369134613,1.6784924086366573,14.496070801861606,-8.270389868009488
1499369134629,0.15259021896690683,15.045395590142562,-5.157549401083315
1499369134645,-2.04470893415737,7.965209430075447,-0.8850232700083325
1499369134661,-0.8850232700083325,-0.45777065690094787,2.8992141603723667
1499369134677,2.5940337224383256,-7.537956816968062,5.645838101777599
1499369134693,3.0823224231326094,-8.392462043183059,6.439307240405924
1499369134709,1.983672846570471,-5.157549401083315,4.974441138323073
1499369134725,1.4343480582895154,1.6784924086366573,2.655069810025225
1499369134741,2.410925459678083,8.33142595559616,1.5564202334630863
1499369134757,3.936827649347606,8.087281605249018,0.09155413138023505
1499369134773,4.058899824521177,4.303044174868319,-0.5798428320745188
1499369134789,4.058899824521177,0.45777065690094787,-0.2746623941404778
1499369134805,2.532997634851654,-3.3875028610666504,-0.09155413138023505
1499369134821,0.213626306553806,-2.7771419851987957,-1.1902037079423735
1499369134837,-0.213626306553806,0.45777065690094787,-2.288853284504512
1499369134853,0.03051804379333589,3.997863736934505,-1.983672846570471
1499369134869,0.2746623941404778,6.256198977645454,-1.0070954451819034
1499369134885,-0.7019150072480898,8.758678568703772,-0.5188067444876197
1499369134901,0.3967345693140487,13.64156557564661,-1.1291676203554744
1499369134917,1.6174563210497581,17.303730830853738,-1.6784924086366573
1499369134933,0.5798428320745188,16.632333867398984,-2.7161058976118966
1499369134949,-4.119935912108076,11.322194247348762,-2.227817196917613
1499369134965,-8.941786831464015,4.303044174868319,0.3967345693140487
1499369134981,-9.308003356984727,0.03051804379333589,-0.7629510948347615
1499369134997,-3.3264667734797513,1.983672846570471,-5.0354772259097444
1499369135013,4.180971999694748,12.298771648737329,-6.500343327992596
1499369135029,13.45845731288614,22.430762188143717,-7.049668116273779
1499369135045,19.562066071564686,16.32715342946517,-7.537956816968062
1499369135061,16.876478217746126,-2.288853284504512,-9.185931181811156
1499369135077,9.67421988250544,-4.9134050507361735,-6.012054627298312
1499369135093,4.42511635004189,-5.279621576256886,-0.09155413138023505
1499369135109,3.570611123826893,-11.261158159761862,2.166781109330941
1499369135125,1.9226367589837992,-10.467689021133765,1.4343480582895154
1499369135141,0.03051804379333589,-3.3264667734797513,-2.105745021744042
1499369135157,-4.42511635004189,1.0070954451819034,-5.157549401083315
1499369135173,-9.918364232852582,1.1291676203554744,-4.303044174868319
1499369135189,-13.64156557564661,-0.6408789196611906,-1.6174563210497581
1499369135205,-16.632333867398984,-1.739528496223329,0.7629510948347615
1499369135221,-20.477607385366582,6.134126802471883,3.2043945983061803
1499369135237,-23.102159151598244,11.688410772869474,7.476920729381163
1499369135253,-23.590447852292527,8.6366063935302,12.176699473563758
1499369135269,-24.200808728160382,9.308003356984727,13.45845731288614
1499369135285,-27.61882963302037,13.58052948805971,11.932555123216616
1499369135301,-30.243381399252257,15.167467765316132,10.589761196307336
1499369135317,-32.44068055237676,19.439993896391115,11.07804989700162
1499369135333,-34.271763179980326,21.45418478675515,9.369039444571627
1499369135349,-38.23910887312127,22.61387045090396,5.462729839017356
1499369135365,-41.962310215915295,27.069504844739413,4.42511635004189
1499369135381,-42.20645456626244,32.80689707789725,5.645838101777599
1499369135397,-39.45983062485698,38.0560006103608,5.3406576638437855
1499369135413,-35.00419623102175,42.755779354543165,2.166781109330941
1499369135429,-29.755092698557974,36.53009842069105,-4.547188525215461
1499369135445,-19.867246509498727,27.252613107499656,-8.026245517662346
1499369135461,-9.185931181811156,23.163195239185143,-6.012054627298312
1499369135477,-2.8381780727854675,20.294499122606112,-4.303044174868319
1499369135493,-2.9602502479590385,12.787060349431613,-5.096513313496644
1499369135509,-5.096513313496644,7.660028992141633,-5.645838101777599
1499369135525,-7.904173342488775,13.275349050125897,-6.073090714885211
1499369135541,-10.650797283894008,16.08300907911803,-6.744487678339738
1499369135557,-11.993591210803288,7.4158846417944915,-4.669260700389032
1499369135573,-10.162508583199724,-3.7537193865873633,-0.6408789196611906
1499369135589,-3.692683299000464,-12.909132524605184,0.33569848172737693
1499369135605,-2.227817196917613,-19.073777370870403,2.410925459678083
1499369135621,-1.2512397955290453,-17.79201953154802,1.6174563210497581
1499369135637,3.570611123826893,-14.251926451514464,-0.8239871824216607
1499369135653,7.782101167315204,-13.031204699778755,-1.8616006713969
1499369135669,11.322194247348762,-16.388189517051842,-1.4343480582895154
1499369135685,14.007782101167322,-19.01274128328373,0.03051804379333589
1499369135701,14.679179064621849,-10.406652933546866,-0.9460593575952316
1499369135717,14.740215152208748,-0.8850232700083325,-2.3498893720911838
1499369135733,17.60891126878755,-4.119935912108076,-4.486152437628789
1499369135749,26.7032883192187,-4.791332875562603,-8.45349813076973
1499369135765,32.99000534065749,-5.0354772259097444,-9.85732814526591
1499369135781,34.33279926756677,-12.23773556115043,-9.73525597009234
1499369135797,32.07446402685582,-19.562066071564686,-9.369039444571627
1499369135813,31.95239185168225,-15.533684290836845,-10.589761196307336
1499369135829,36.95735103379866,-8.026245517662346,-13.45845731288614
1499369135845,42.02334630350174,-3.2654306858930795,-16.2050812542916
1499369135861,43.42717631799792,0.8239871824216607,-16.632333867398984
1499369135877,43.67132066834506,3.814755474174035,-16.2050812542916
1499369135893,47.02830548561815,10.040436408026153,-15.472648203250174
1499369135909,51.30083161669336,9.430075532158298,-14.679179064621849
1499369135925,51.850156404974314,7.049668116273779,-11.993591210803288
1499369135941,50.812542915999074,5.889982452124741,-10.89494163424115
1499369135957,48.92042420080861,2.105745021744042,-10.772869459067579
1499369135973,48.371099412527656,-1.3733119707026162,-9.491111619745197
1499369135989,48.79835202563481,-3.814755474174035,-6.744487678339738
1499369136005,46.90623331044458,-3.3875028610666504,-6.439307240405924
1499369136021,42.38956282902245,0.33569848172737693,-7.843137254901876
1499369136037,34.63797970550081,1.0681315327688026,-7.537956816968062
1499369136053,27.069504844739413,-1.3733119707026162,-4.547188525215461
1499369136069,21.69832913710229,-3.692683299000464,-3.0823224231326094
1499369136085,17.975127794308264,-3.0823224231326094,-2.9602502479590385
1499369136101,16.2050812542916,3.4485389486533222,-2.532997634851654
1499369136117,13.885709925993751,6.8665598535133086,-2.8381780727854675
1499369136133,11.07804989700162,5.584802014190927,-3.814755474174035
1499369136149,8.270389868009488,6.744487678339738,-3.5095750362402214
1499369136165,7.4158846417944915,5.279621576256886,-2.655069810025225
1499369136181,6.9886320286868795,5.401693751430457,-1.2512397955290453
1499369136197,5.76791027695117,2.5940337224383256,-0.03051804379333589
1499369136213,3.936827649347606,-0.7019150072480898,2.7161058976118966
1499369136229,3.2654306858930795,-2.166781109330941,5.2185854886702145
1499369136245,4.119935912108076,-2.7161058976118966,5.706874189364498
1499369136261,5.157549401083315,-2.288853284504512,3.570611123826893
1499369136277,5.76791027695117,-1.3733119707026162,1.739528496223329
1499369136293,5.2185854886702145,-0.45777065690094787,1.3122758831159445
1499369136309,3.570611123826893,0.09155413138023505,1.3733119707026162
1499369136325,1.3122758831159445,1.739528496223329,1.4343480582895154
1499369136341,-0.03051804379333589,3.3264667734797513,1.739528496223329
1499369136357,0.8239871824216607,3.692683299000464,1.3733119707026162
1499369136373,3.3875028610666504,4.242008087281647,0.09155413138023505
1499369136389,4.791332875562603,3.7537193865873633,-0.7019150072480898
1499369136405,3.997863736934505,2.7161058976118966,-0.7629510948347615
1499369136421,1.8005645838102282,3.2654306858930795,-0.7019150072480898
1499369136437,0.45777065690094787,1.8616006713969,-0.33569848172737693
1499369136453,0.8850232700083325,-0.15259021896690683,-0.15259021896690683
1499369136469,2.288853284504512,0.8850232700083325,-0.7019150072480898
1499369136485,3.2654306858930795,3.1433585107195086,-1.0070954451819034
1499369136501,2.7771419851987957,4.486152437628789,-0.5188067444876197
1499369136517,2.288853284504512,5.401693751430457,-0.2746623941404778
1499369136533,3.0823224231326094,7.354848554207592,-0.7019150072480898
1499369136549,3.936827649347606,7.782101167315204,-1.6174563210497581
1499369136565,3.5095750362402214,7.4158846417944915,-0.5798428320745188
1499369136581,2.105745021744042,5.0354772259097444,1.6784924086366573
1499369136597,1.3122758831159445,3.3264667734797513,3.6316472114137923
1499369136613,1.4343480582895154,3.0823224231326094,5.096513313496644
1499369136629,2.410925459678083,4.852368963149502,4.486152437628789
1499369136645,2.7771419851987957,6.134126802471883,2.4719615472647547
1499369136661,2.7771419851987957,3.0212863355459376,1.3733119707026162
1499369136677,2.532997634851654,1.3733119707026162,1.6784924086366573
1499369136693,1.6174563210497581,1.6174563210497581,1.3122758831159445
1499369136709,1.0070954451819034,1.2512397955290453,0.7019150072480898
1499369136725,1.4953841458761872,2.166781109330941,0.45777065690094787
1499369136741,2.166781109330941,4.547188525215461,-0.03051804379333589
1499369136757,2.3498893720911838,3.570611123826893,-1.4343480582895154
1499369136773,1.739528496223329,3.2654306858930795,-0.6408789196611906
1499369136789,1.2512397955290453,4.364080262455218,0.213626306553806
1499369136805,1.1902037079423735,4.364080262455218,-0.5188067444876197
1499369136821,1.4953841458761872,2.7771419851987957,-1.1291676203554744
1499369136837,2.227817196917613,2.3498893720911838,-0.8850232700083325
1499369136853,2.9602502479590385,1.8005645838102282,-0.6408789196611906
1499369136869,2.7771419851987957,2.166781109330941,-0.213626306553806
1499369136885,2.227817196917613,4.303044174868319,0.8850232700083325
1499369136901,1.9226367589837992,6.9886320286868795,1.3733119707026162
1499369136917,2.288853284504512,7.598992904554734,0.33569848172737693
1499369136933,2.3498893720911838,3.7537193865873633,0.15259021896690683
1499369136949,2.166781109330941,1.9226367589837992,0.9460593575952316
1499369136965,2.532997634851654,3.0823224231326094,-0.03051804379333589
1499369136981,3.0212863355459376,2.8992141603723667,-1.1291676203554744
1499369136997,2.7161058976118966,1.8005645838102282,-0.5188067444876197
1499369137013,2.8381780727854675,3.1433585107195086,-0.03051804379333589
1499369137029,3.0212863355459376,4.486152437628789,-0.15259021896690683
1499369137045,2.655069810025225,3.1433585107195086,-0.5798428320745188
1499369137061,2.4719615472647547,2.8992141603723667,-0.15259021896690683
1499369137077,2.227817196917613,2.9602502479590385,-0.5798428320745188
1499369137093,1.739528496223329,2.410925459678083,-0.45777065690094787
1499369137109,1.2512397955290453,1.1902037079423735,0.3967345693140487
1499369137125,0.45777065690094787,0.213626306553806,0.7019150072480898
1499369137141,-0.5798428320745188,1.0070954451819034,0.5188067444876197
1499369137157,0.5188067444876197,2.532997634851654,-0.5798428320745188
1499369137173,1.6784924086366573,3.5095750362402214,-0.6408789196611906
1499369137189,2.655069810025225,2.7161058976118966,0.09155413138023505
1499369137205,2.7771419851987957,2.8381780727854675,0.33569848172737693
1499369137221,2.5940337224383256,2.8381780727854675,0.213626306553806
1499369137237,3.997863736934505,3.0823224231326094,0.213626306553806
1499369137253,5.523765926604028,1.983672846570471,0.8850232700083325
1499369137269,5.279621576256886,0.45777065690094787,1.6784924086366573
1499369137285,4.242008087281647,-0.6408789196611906,1.6174563210497581
1499369137301,2.7771419851987957,0.213626306553806,1.8616006713969
1499369137317,1.4343480582895154,1.739528496223329,1.6174563210497581
1499369137333,1.3122758831159445,2.4719615472647547,0.7629510948347615
1499369137349,1.3733119707026162,5.096513313496644,1.0681315327688026
1499369137365,0.9460593575952316,6.561379415579495,1.0070954451819034
1499369137381,0.5798428320745188,4.180971999694748,0.8239871824216607
1499369137397,0.45777065690094787,1.4343480582895154,1.4953841458761872
1499369137413,0.9460593575952316,0.2746623941404778,1.739528496223329
1499369137429,1.8616006713969,1.8005645838102282,1.1291676203554744
1499369137445,3.0823224231326094,3.3264667734797513,0.15259021896690683
1499369137461,3.7537193865873633,4.852368963149502,-0.45777065690094787
1499369137477,3.5095750362402214,4.9134050507361735,-0.3967345693140487
1499369137493,2.4719615472647547,3.997863736934505,0.33569848172737693
1499369137509,1.5564202334630863,3.7537193865873633,1.2512397955290453
1499369137525,1.2512397955290453,4.242008087281647,1.0681315327688026
1499369137541,1.3122758831159445,3.0823224231326094,0.8850232700083325
1499369137557,0.7629510948347615,1.6784924086366573,1.2512397955290453
1499369137573,-0.3967345693140487,0.7629510948347615,1.6174563210497581
1499369137589,-2.04470893415737,-0.213626306553806,2.655069810025225
1499369137605,-3.3264667734797513,-1.8005645838102282,3.3264667734797513
1499369137621,-3.997863736934505,-2.4719615472647547,4.303044174868319
1499369137637,-2.227817196917613,0.3967345693140487,3.875791561760934
1499369137653,1.1902037079423735,4.242008087281647,2.3498893720911838
1499369137669,3.1433585107195086,5.3406576638437855,1.3122758831159445
1499369137685,3.4485389486533222,3.7537193865873633,1.3733119707026162
1499369137701,3.4485389486533222,3.0212863355459376,1.4953841458761872
1499369137717,3.997863736934505,2.532997634851654,1.2512397955290453
1499369137733,3.875791561760934,1.8005645838102282,0.8239871824216607
1499369137749,3.6316472114137923,1.6174563210497581,0.6408789196611906
1499369137765,3.570611123826893,1.739528496223329,0.45777065690094787
1499369137781,3.5095750362402214,3.570611123826893,0.2746623941404778
1499369137797,3.3264667734797513,3.3875028610666504,-0.7019150072480898
1499369137813,3.1433585107195086,1.8616006713969,-1.3122758831159445
1499369137829,2.5940337224383256,2.532997634851654,-1.2512397955290453
1499369137845,2.5940337224383256,1.739528496223329,-1.3733119707026162
1499369137861,2.288853284504512,1.3122758831159445,-1.1291676203554744
1499369137877,1.6784924086366573,3.692683299000464,-0.03051804379333589
1499369137893,2.04470893415737,4.547188525215461,1.1902037079423735
