Timestamp (ms),Accel X (g),Accel Y (g),Accel Z (g)
1499369078609,-0.5585412375066756,-0.7268787670710308,-0.39105821316853584
1499369078625,-0.5587853818570228,-0.7250476844434273,-0.39056992446784156
1499369078641,-0.5547570000762949,-0.7248035400930801,-0.389593347066453
1499369078657,-0.5508506904707406,-0.7222400244144351,-0.38605325398641943
1499369078673,-0.5498741130693521,-0.722850385290303,-0.38422217135881587
1499369078689,-0.5541466392004271,-0.723704890516518,-0.3832455939574273
1499369078705,-0.560128175783932,-0.727977416647593,-0.381902800030518
1499369078721,-0.560982681010147,-0.7307850766765851,-0.3811703669794766
1499369078737,-0.5595178149080642,-0.7324940871290151,-0.37885099565117875
1499369078753,-0.5570763714045928,-0.7328603036545358,-0.3778744182497902
1499369078769,-0.5596398870832378,-0.7333485923552301,-0.3799496452277409
1499369078785,-0.5608606088349735,-0.7309071488517587,-0.38300144960708016
1499369078801,-0.560982681010147,-0.7324940871290151,-0.3845883878843366
1499369078817,-0.5581750209811549,-0.7302967879758908,-0.38593118181124586
1499369078833,-0.5571984435797663,-0.7270008392462044,-0.38263523308155944
1499369078849,-0.5578088044556342,-0.7243152513923858,-0.3862973983367666
1499369078865,-0.5574425879301135,-0.7224841687647823,-0.387884336614023
1499369078881,-0.5554894331273363,-0.7238269626916916,-0.38519874876020443
1499369078897,-0.5514610513466085,-0.7265125505455101,-0.38605325398641943
1499369078913,-0.5496299687190049,-0.7270008392462044,-0.3825131609063859
1499369078929,-0.5498741130693521,-0.7272449835965515,-0.3789730678263523
1499369078945,-0.5523155565728235,-0.7282215609979401,-0.37970550087739374
1499369078961,-0.5539024948500799,-0.7268787670710308,-0.37970550087739374
1499369078977,-0.5550011444266421,-0.727122911421378,-0.3765316243228809
1499369078993,-0.5545128557259478,-0.7289539940489815,-0.3736018921187152
1499369079009,-0.5559777218280306,-0.730540932326238,-0.37836270695048446
1499369079025,-0.5611047531853206,-0.7295643549248494,-0.38263523308155944
1499369079041,-0.5615930418860149,-0.7309071488517587,-0.3865415426871137
1499369079057,-0.5614709697108413,-0.7295643549248494,-0.3839780270084687
1499369079073,-0.5570763714045928,-0.7311512932021058,-0.384466315709163
1499369079089,-0.5557335774776835,-0.7300526436255437,-0.38348973830777444
1499369079105,-0.5547570000762949,-0.7321278706034944,-0.3789730678263523
1499369079121,-0.5578088044556342,-0.7294422827496758,-0.3839780270084687
1499369079137,-0.5580529488059813,-0.7293202105745022,-0.3875181200885023
1499369079153,-0.556710154879072,-0.7257801174944687,-0.3891050583657587
1499369079169,-0.5547570000762949,-0.7234607461661708,-0.387884336614023
1499369079185,-0.5523155565728235,-0.7249256122682537,-0.3866636148622873
1499369079201,-0.5517051956969556,-0.7248035400930801,-0.3903257801174944
1499369079217,-0.5532921339742121,-0.7244373235675594,-0.3886167696650644
1499369079233,-0.5540245670252535,-0.7266346227206837,-0.392156862745098
1499369079250,-0.5546349279011213,-0.7278553444724194,-0.3908140688181887
1499369079266,-0.5535362783245592,-0.7283436331731137,-0.383611810482948
1499369079282,-0.5526817730983442,-0.725413900968948,-0.38043793392843517
1499369079298,-0.5493858243686578,-0.7265125505455101,-0.37714198519874875
1499369079314,-0.5509727626459142,-0.7274891279468987,-0.37592126344701304
1499369079330,-0.5531700617990385,-0.7276112001220723,-0.3799496452277409
1499369079346,-0.5571984435797663,-0.7272449835965515,-0.3841000991836423
1499369079362,-0.558419165331502,-0.7298084992751965,-0.38605325398641943
1499369079378,-0.5607385366597999,-0.7332265201800565,-0.38641947051194014
1499369079394,-0.5633020523384453,-0.7307850766765851,-0.38690775921263443
1499369079410,-0.563668268863966,-0.7321278706034944,-0.38812848096437014
1499369079426,-0.5606164644846263,-0.7285877775234608,-0.3858091096360723
1499369079442,-0.5556115053025099,-0.7280994888227665,-0.38336766613260087
1499369079458,-0.5518272678721292,-0.7282215609979401,-0.3761654077973602
1499369079474,-0.5514610513466085,-0.727977416647593,-0.3768978408484016
1499369079490,-0.5513389791714349,-0.7273670557717251,-0.3794613565270466
1499369079506,-0.5539024948500799,-0.7246814679179066,-0.3798275730525673
1499369079522,-0.5537804226749063,-0.7272449835965515,-0.37836270695048446
1499369079538,-0.5508506904707406,-0.7291981383993287,-0.37555504692149233
1499369079554,-0.5491416800183107,-0.7328603036545358,-0.37750820172426947
1499369079570,-0.5496299687190049,-0.7335927367055772,-0.3773861295490959
1499369079586,-0.5525597009231706,-0.7327382314793622,-0.38129243915465016
1499369079602,-0.5574425879301135,-0.731395437552453,-0.38434424353398944
1499369079618,-0.5587853818570228,-0.7277332722972458,-0.3866636148622873
1499369079634,-0.5625696192874039,-0.7268787670710308,-0.38715190356298157
1499369079650,-0.5665980010681317,-0.7294422827496758,-0.3900816357671473
1499369079666,-0.5668421454184789,-0.7324940871290151,-0.3906919966430151
1499369079682,-0.5629358358129246,-0.7387197680628672,-0.38764019226367585
1499369079698,-0.5596398870832378,-0.7382314793621729,-0.3848325322346837
1499369079714,-0.5591515983825435,-0.7364003967345694,-0.3837338826581216
1499369079730,-0.556710154879072,-0.7310292210269322,-0.38312352178225373
1499369079746,-0.5512169069962614,-0.7282215609979401,-0.38263523308155944
1499369079762,-0.5496299687190049,-0.7246814679179066,-0.38422217135881587
1499369079778,-0.5498741130693521,-0.7213855191882201,-0.383611810482948
1499369079794,-0.5465781643396657,-0.7197985809109637,-0.38641947051194014
1499369079810,-0.5504844739452199,-0.7207751583123523,-0.3865415426871137
1499369079826,-0.5589074540321963,-0.7298084992751965,-0.39740596627756153
1499369079842,-0.5615930418860149,-0.7343251697566187,-0.39813839932860295
1499369079858,-0.5570763714045928,-0.7392080567635615,-0.39276722362096583
1499369079874,-0.5525597009231706,-0.7409170672159915,-0.3828793774319066
1499369079890,-0.5497520408941785,-0.7344472419317922,-0.37750820172426947
1499369079906,-0.5514610513466085,-0.7290760662241551,-0.37457846952010376
1499369079922,-0.5536583504997328,-0.7268787670710308,-0.37421225299458305
1499369079938,-0.5568322270542456,-0.7263904783703365,-0.3757991912718395
1499369079954,-0.5563439383535513,-0.7265125505455101,-0.37628747997253376
1499369079970,-0.5534142061493856,-0.7248035400930801,-0.37213702601663234
1499369079986,-0.5510948348210878,-0.7251697566186008,-0.37079423208972306
1499369080002,-0.5464560921644921,-0.7259021896696423,-0.3696955825131609
1499369080018,-0.5460898756389714,-0.727122911421378,-0.37128252079041735
1499369080034,-0.5468223086900128,-0.7312733653772794,-0.37091630426489663
1499369080050,-0.5495078965438314,-0.7350576028076601,-0.3714045929655909
1499369080066,-0.5539024948500799,-0.7335927367055772,-0.3757991912718395
1499369080082,-0.5586633096818492,-0.7317616540779737,-0.37714198519874875
1499369080098,-0.5586633096818492,-0.7306630045014115,-0.37457846952010376
1499369080114,-0.5586633096818492,-0.7290760662241551,-0.37164873731593806
1499369080130,-0.560128175783932,-0.728831921873808,-0.3681086442359045
1499369080146,-0.5629358358129246,-0.733104448004883,-0.3656672007324331
1499369080162,-0.5651331349660489,-0.7364003967345694,-0.36664377813382165
1499369080178,-0.5672083619439996,-0.7382314793621729,-0.3681086442359045
1499369080194,-0.5674525062943467,-0.7412832837415122,-0.3672541390096895
1499369080211,-0.5624475471122299,-0.7422598611429008,-0.36493476768139166
1499369080227,-0.5608606088349735,-0.7399404898146029,-0.36420233463035023
1499369080243,-0.5598840314335849,-0.7373769741359579,-0.36798657206073093
1499369080259,-0.5600061036087585,-0.7350576028076601,-0.37042801556420235
1499369080275,-0.5598840314335849,-0.732249942778668,-0.3711604486152438
1499369080291,-0.5600061036087585,-0.7304188601510644,-0.3696955825131609
1499369080307,-0.5590295262073699,-0.7284657053482873,-0.3705500877393759
1499369080323,-0.5596398870832378,-0.7278553444724194,-0.36908522163729307
1499369080339,-0.559273670557717,-0.7263904783703365,-0.3706721599145495
1499369080355,-0.5581750209811549,-0.7257801174944687,-0.3682307164110781
1499369080371,-0.5581750209811549,-0.7246814679179066,-0.3681086442359045
1499369080387,-0.558419165331502,-0.7263904783703365,-0.3660334172579538
1499369080403,-0.5587853818570228,-0.7294422827496758,-0.3665217059586481
1499369080419,-0.5585412375066756,-0.7300526436255437,-0.36151674677653167
1499369080435,-0.5586633096818492,-0.7338368810559244,-0.3606622415503167
1499369080451,-0.5606164644846263,-0.7372549019607844,-0.355168993667506
1499369080467,-0.5650110627908753,-0.7370107576104372,-0.356878004119936
1499369080483,-0.5658655680170903,-0.7365224689097429,-0.3562676432440681
1499369080499,-0.5709925993743803,-0.7374990463111315,-0.35870908674753954
1499369080515,-0.5758754863813231,-0.7379873350118258,-0.3588311589227131
1499369080531,-0.5746547646295874,-0.7407949950408179,-0.35614557106889455
1499369080547,-0.5752651255054553,-0.7428702220187686,-0.3580987258716717
1499369080563,-0.5712367437247274,-0.7434805828946365,-0.35236133363851385
1499369080579,-0.5690394445716032,-0.7385976958876936,-0.3529716945143817
1499369080595,-0.567940794995041,-0.7351796749828337,-0.35114061188677814
1499369080611,-0.5712367437247274,-0.7328603036545358,-0.35077439536125743
1499369080627,-0.5694056610971239,-0.7318837262531472,-0.35358205539024956
1499369080643,-0.5700160219729917,-0.7316395819028001,-0.34943160143434815
1499369080659,-0.5661097123674375,-0.7289539940489815,-0.34943160143434815
1499369080675,-0.5644007019150075,-0.727122911421378,-0.34943160143434815
1499369080691,-0.5623254749370563,-0.7255359731441215,-0.35492484931715884
1499369080707,-0.561837186236362,-0.7250476844434273,-0.35700007629510955
1499369080723,-0.5607385366597999,-0.7273670557717251,-0.35748836499580383
1499369080739,-0.560982681010147,-0.7289539940489815,-0.3591973754482338
1499369080755,-0.5623254749370563,-0.7280994888227665,-0.3618829633020524
1499369080771,-0.5612268253604942,-0.7277332722972458,-0.3621271076523995
1499369080787,-0.560982681010147,-0.7238269626916916,-0.3617608911268788
1499369080803,-0.5624475471122299,-0.721995880064088,-0.36542305638208594
1499369080819,-0.5633020523384453,-0.7248035400930801,-0.3635919737544824
1499369080835,-0.565377279316396,-0.7273670557717251,-0.36786449988555736
1499369080851,-0.5694056610971239,-0.7300526436255437,-0.3714045929655909
1499369080867,-0.5740444037537196,-0.7317616540779737,-0.3723811703669795
1499369080883,-0.5759975585564967,-0.733104448004883,-0.3715266651407645
1499369080899,-0.5728236820019839,-0.7339589532310979,-0.3705500877393759
1499369080915,-0.5718471046005953,-0.7356679636835279,-0.37372396429388877
1499369080931,-0.5714808880750746,-0.7335927367055772,-0.3748226138704509
1499369080947,-0.5740444037537196,-0.7293202105745022,-0.3739681086442359
1499369080963,-0.5766079194323646,-0.7261463340199894,-0.3749446860456245
1499369080979,-0.5718471046005953,-0.7259021896696423,-0.37421225299458305
1499369080995,-0.5708705271992067,-0.7235828183413444,-0.3705500877393759
1499369081011,-0.5694056610971239,-0.722850385290303,-0.37091630426489663
1499369081027,-0.5664759288929582,-0.7265125505455101,-0.3672541390096895
1499369081043,-0.5651331349660489,-0.7293202105745022,-0.3685969329365988
1499369081059,-0.5673304341191732,-0.7291981383993287,-0.3723811703669795
1499369081075,-0.5656214236667432,-0.7238269626916916,-0.3682307164110781
1499369081091,-0.5644007019150075,-0.7223620965896087,-0.3689631494621195
1499369081107,-0.5641565575646603,-0.7221179522392616,-0.37250324254215306
1499369081123,-0.562813763637751,-0.7235828183413444,-0.36884107728694593
1499369081139,-0.5652552071412225,-0.725413900968948,-0.36627756160830094
1499369081155,-0.565377279316396,-0.727122911421378,-0.3676203555352102
1499369081172,-0.5714808880750746,-0.7293202105745022,-0.36871900511177236
1499369081188,-0.5759975585564967,-0.724559395742733,-0.3711604486152438
1499369081204,-0.579903868162051,-0.7215075913633937,-0.3705500877393759
1499369081220,-0.5808804455634395,-0.7196765087357901,-0.3727473868925002
1499369081236,-0.5792935072861831,-0.7224841687647823,-0.37213702601663234
1499369081252,-0.5786831464103153,-0.7251697566186008,-0.3685969329365988
1499369081268,-0.5778286411841003,-0.7300526436255437,-0.3739681086442359
1499369081284,-0.5752651255054553,-0.7345693141069658,-0.37506675822079805
1499369081300,-0.574776836804761,-0.7338368810559244,-0.3736018921187152
1499369081316,-0.5701380941481653,-0.727977416647593,-0.37128252079041735
1499369081332,-0.5639124132143132,-0.7227283131151294,-0.3644464789806974
1499369081348,-0.5641565575646603,-0.7205310139620051,-0.36408026245517666
1499369081364,-0.5642786297398339,-0.719432364385443,-0.3659113450827802
1499369081380,-0.5650110627908753,-0.7190661478599223,-0.3677424277103838
1499369081396,-0.5667200732433053,-0.7188220035095751,-0.3711604486152438
1499369081412,-0.5707484550240332,-0.7205310139620051,-0.3761654077973602
1499369081428,-0.5728236820019839,-0.7240711070420387,-0.3773861295490959
1499369081444,-0.5717250324254217,-0.7256580453192951,-0.3794613565270466
1499369081460,-0.573922331578546,-0.727977416647593,-0.37714198519874875
1499369081476,-0.5746547646295874,-0.730540932326238,-0.37299153124284734
1499369081492,-0.5766079194323646,-0.7280994888227665,-0.37286945906767377
1499369081508,-0.5762417029068438,-0.7289539940489815,-0.3734798199435416
1499369081524,-0.5717250324254217,-0.725413900968948,-0.3698176546883345
1499369081540,-0.5680628671702146,-0.7250476844434273,-0.3718928816662852
1499369081556,-0.562813763637751,-0.7223620965896087,-0.37213702601663234
1499369081572,-0.5585412375066756,-0.7199206530861373,-0.3761654077973602
1499369081588,-0.5562218661783778,-0.7188220035095751,-0.380193789578088
1499369081604,-0.5622034027618827,-0.7136949721522852,-0.3894712748912794
1499369081620,-0.5661097123674375,-0.7114976729991609,-0.3959411001754787
1499369081636,-0.5648889906157017,-0.7110093842984666,-0.3970397497520408
1499369081652,-0.5641565575646603,-0.7111314564736402,-0.39520866712443725
1499369081668,-0.5650110627908753,-0.713450827801938,-0.38678568703746086
1499369081684,-0.5650110627908753,-0.7188220035095751,-0.37970550087739374
1499369081700,-0.5712367437247274,-0.7206530861371787,-0.3764095521477073
1499369081716,-0.575631342030976,-0.7226062409399558,-0.3781185626001373
1499369081732,-0.5757534142061496,-0.7255359731441215,-0.37665369649805447
1499369081748,-0.5748989089799346,-0.7282215609979401,-0.3739681086442359
1499369081764,-0.5755092698558024,-0.7274891279468987,-0.37091630426489663
1499369081780,-0.5752651255054553,-0.7284657053482873,-0.36908522163729307
1499369081796,-0.5720912489509424,-0.7280994888227665,-0.3684748607614252
1499369081812,-0.5691615167467767,-0.7280994888227665,-0.3665217059586481
1499369081828,-0.5648889906157017,-0.7252918287937744,-0.3644464789806974
1499369081844,-0.562813763637751,-0.7240711070420387,-0.3622491798275731
1499369081860,-0.5644007019150075,-0.7218738078889144,-0.3659113450827802
1499369081876,-0.5690394445716032,-0.7179674982833602,-0.3677424277103838
1499369081892,-0.571358815899901,-0.7149156939040209,-0.3711604486152438
1499369081908,-0.5720912489509424,-0.7154039826047152,-0.3749446860456245
1499369081924,-0.5707484550240332,-0.7152819104295416,-0.37299153124284734
1499369081940,-0.5711146715495539,-0.7199206530861373,-0.3710383764400702
1499369081956,-0.5706263828488596,-0.720286869611658,-0.37470054169527733
1499369081972,-0.5673304341191732,-0.7229724574654766,-0.37299153124284734
1499369081988,-0.566231784542611,-0.7222400244144351,-0.36884107728694593
1499369082004,-0.5667200732433053,-0.7232166018158237,-0.3656672007324331
1499369082020,-0.5690394445716032,-0.7230945296406501,-0.36542305638208594
1499369082036,-0.572213321126116,-0.7218738078889144,-0.36163881895170524
1499369082052,-0.5744106202792403,-0.7215075913633937,-0.36200503547722596
1499369082068,-0.577340352483406,-0.7232166018158237,-0.35944151979858097
1499369082084,-0.5792935072861831,-0.723704890516518,-0.35785458152132454
1499369082100,-0.582467383840696,-0.7270008392462044,-0.35944151979858097
1499369082116,-0.5844205386434731,-0.7278553444724194,-0.3596856641489281
1499369082133,-0.5846646829938202,-0.7299305714503701,-0.35944151979858097
1499369082149,-0.586739909971771,-0.730540932326238,-0.3609063859006638
1499369082165,-0.5812466620889603,-0.7302967879758908,-0.3589532310978867
1499369082181,-0.5779507133592738,-0.7329823758297094,-0.354314488441291
1499369082197,-0.5702601663233389,-0.7293202105745022,-0.348332951857786
1499369082213,-0.5686732280460824,-0.7284657053482873,-0.35236133363851385
1499369082229,-0.5686732280460824,-0.7267566948958573,-0.3571221484702831
1499369082245,-0.5703822384985124,-0.7255359731441215,-0.3580987258716717
1499369082261,-0.5786831464103153,-0.7218738078889144,-0.3668879224841688
1499369082277,-0.5851529716945145,-0.716868848706798,-0.3684748607614252
1499369082293,-0.5894254978255895,-0.7166247043564509,-0.3705500877393759
1499369082309,-0.5897917143511102,-0.7167467765316244,-0.36993972686350807
1499369082325,-0.5844205386434731,-0.7208972304875259,-0.3698176546883345
1499369082341,-0.5801480125123981,-0.729686427100023,-0.3715266651407645
1499369082357,-0.5821011673151752,-0.7368886854352636,-0.37750820172426947
1499369082373,-0.5840543221179524,-0.7346913862821394,-0.3773861295490959
1499369082389,-0.5789272907606624,-0.7234607461661708,-0.37335774776836805
1499369082405,-0.5689173723964296,-0.7121080338750287,-0.3668879224841688
1499369082421,-0.5637903410391396,-0.7062485694666973,-0.36127260242618453
1499369082437,-0.5634241245136189,-0.7039291981383995,-0.3639581902800031
1499369082453,-0.5613488975356677,-0.7079575799191273,-0.3694514381628138
1499369082469,-0.5608606088349735,-0.7165026321812773,-0.37250324254215306
1499369082485,-0.5646448462653546,-0.7208972304875259,-0.37848477912565803
1499369082501,-0.5686732280460824,-0.7206530861371787,-0.37848477912565803
1499369082517,-0.5716029602502481,-0.7191882200350959,-0.3787289234760052
1499369082533,-0.5733119707026781,-0.7205310139620051,-0.37262531471732663
1499369082549,-0.5714808880750746,-0.7199206530861373,-0.36334782940413524
1499369082565,-0.5719691767757689,-0.7240711070420387,-0.3571221484702831
1499369082581,-0.5750209811551081,-0.723704890516518,-0.3529716945143817
1499369082597,-0.5751430533302817,-0.7249256122682537,-0.354314488441291
1499369082613,-0.5775844968337531,-0.7268787670710308,-0.35700007629510955
1499369082629,-0.584176394293126,-0.7304188601510644,-0.3613946746013581
1499369082645,-0.5874723430228124,-0.7349355306324865,-0.36627756160830094
1499369082661,-0.5879606317235067,-0.7362783245593958,-0.36908522163729307
1499369082677,-0.5899137865262838,-0.7357900358587015,-0.3684748607614252
1499369082693,-0.5913786526283666,-0.7334706645304037,-0.3622491798275731
1499369082709,-0.5896696421759366,-0.7320057984283208,-0.35565728236820027
1499369082725,-0.5860074769207295,-0.7345693141069658,-0.35077439536125743
1499369082741,-0.5847867551689938,-0.7382314793621729,-0.3488212405584803
1499369082757,-0.5845426108186467,-0.7404287785152972,-0.3428397039749753
1499369082773,-0.5827115281910431,-0.7422598611429008,-0.33929961089494176
1499369082789,-0.5830777447165638,-0.7439688715953308,-0.3386892500190739
1499369082805,-0.5821011673151752,-0.7467765316243229,-0.3366140230411232
1499369082821,-0.5811245899137867,-0.7522697795071336,-0.33087663080796537
1499369082837,-0.5797817959868774,-0.7561760891126879,-0.33429465171282535
1499369082853,-0.5770962081330588,-0.7573968108644236,-0.3311207751583125
1499369082869,-0.5738002594033724,-0.7571526665140764,-0.33563744563973463
1499369082885,-0.5727016098268103,-0.7542229343099107,-0.33856717784390034
1499369082901,-0.5678187228198674,-0.7505607690547036,-0.3403982604715039
1499369082917,-0.5681849393453882,-0.7509269855802243,-0.346623941405356
1499369082933,-0.5663538567177846,-0.7497062638284886,-0.35272755016403456
1499369082949,-0.562813763637751,-0.75043869687953,-0.36420233463035023
1499369082965,-0.555855649652857,-0.7459220263981079,-0.3748226138704509
1499369082981,-0.5474326695658807,-0.7433585107194629,-0.3849546044098573
1499369082997,-0.5405966277561607,-0.7366445410849165,-0.3991149767299915
1499369083013,-0.5399862668802928,-0.7273670557717251,-0.41498435950255574
1499369083029,-0.537666895551995,-0.7234607461661708,-0.42621499961852427
1499369083045,-0.5322957198443579,-0.7186999313344016,-0.4323186083772028
1499369083061,-0.530830853742275,-0.715159838254368,-0.4422064545662625
1499369083077,-0.5283894102388036,-0.708323796444648,-0.4481879911497675
1499369083094,-0.5271686884870679,-0.7080796520943009,-0.45331502250705746
1499369083110,-0.5252155336842907,-0.7084458686198216,-0.45551232166018174
1499369083126,-0.5236285954070343,-0.7071030746929123,-0.45624475471122317
1499369083142,-0.5181353475242236,-0.7050278477149616,-0.460273136491951
1499369083158,-0.509224078736553,-0.7017318989852752,-0.45258258945601604
1499369083174,-0.5022659647516594,-0.7121080338750287,-0.44757763027389963
1499369083190,-0.49335469596398873,-0.7135728999771116,-0.44953078507667676
1499369083206,-0.4917677576867323,-0.7186999313344016,-0.4439154650186925
1499369083222,-0.4934767681391623,-0.7248035400930801,-0.44623483634699035
1499369083238,-0.4896925307087816,-0.7282215609979401,-0.4451361867704282
1499369083254,-0.4874952315556573,-0.7333485923552301,-0.43915465018692323
1499369083270,-0.48871595330739304,-0.733104448004883,-0.4358587014572364
1499369083286,-0.48322270542458234,-0.726268406195163,-0.43390554665445924
1499369083302,-0.4859082932784009,-0.727977416647593,-0.4335393301289385
1499369083318,-0.4841992828259709,-0.7277332722972458,-0.4336614023041121
1499369083334,-0.4788281071183338,-0.728831921873808,-0.4370794232089721
1499369083350,-0.4754100862134738,-0.7278553444724194,-0.44000915541313823
1499369083366,-0.47516594186312666,-0.7285877775234608,-0.43915465018692323
1499369083382,-0.4749217975127795,-0.7257801174944687,-0.43866636148622895
1499369083398,-0.47724116884107737,-0.7238269626916916,-0.4418402380407418
1499369083414,-0.47907225146868093,-0.7238269626916916,-0.4459906919966432
1499369083430,-0.4796826123445488,-0.724559395742733,-0.45038529030289176
1499369083446,-0.48029297322041664,-0.7270008392462044,-0.4489204242008089
1499369083462,-0.4821240558480202,-0.7267566948958573,-0.4507515068284125
1499369083478,-0.48480964370183877,-0.7274891279468987,-0.4498970016021975
1499369083494,-0.4854200045777066,-0.7280994888227665,-0.44782177462424677
1499369083510,-0.48236820019836735,-0.7307850766765851,-0.4406195162890061
1499369083526,-0.4755321583886474,-0.7300526436255437,-0.4423285267414361
1499369083542,-0.4732127870603495,-0.7268787670710308,-0.44672312504768463
1499369083558,-0.47394522011139095,-0.7240711070420387,-0.45380331120775175
1499369083574,-0.48065918974593735,-0.7210193026626994,-0.4578316929884796
1499369083590,-0.4893263141832609,-0.718577859159228,-0.45416952773327246
1499369083606,-0.49701686121919586,-0.7174792095826659,-0.4447699702449075
1499369083622,-0.5045853360799573,-0.7199206530861373,-0.44159609369039465
1499369083638,-0.5082475013351644,-0.7212634470130466,-0.4374456397344928
1499369083654,-0.5104448004882887,-0.7239490348668651,-0.4335393301289385
1499369083670,-0.5093461509117265,-0.7263904783703365,-0.42719157701991284
1499369083686,-0.5097123674372472,-0.7268787670710308,-0.42206454566262286
1499369083702,-0.5119096665903715,-0.7280994888227665,-0.4181582360570686
1499369083718,-0.5141069657434958,-0.7338368810559244,-0.41412985427634075
1499369083734,-0.5159380483710994,-0.7372549019607844,-0.4071717402914472
1499369083750,-0.5217975127794308,-0.744457160296025,-0.4047302967879758
1499369083766,-0.5258258945601586,-0.7420157167925536,-0.4005798428320744
1499369083782,-0.5277790493629357,-0.7412832837415122,-0.3971618219272144
1499369083798,-0.5294880598153657,-0.7388418402380408,-0.392156862745098
1499369083814,-0.5331502250705729,-0.7350576028076601,-0.3882505531395437
1499369083830,-0.5377889677271686,-0.7354238193331808,-0.385320820935378
1499369083846,-0.5409628442816814,-0.7373769741359579,-0.3841000991836423
1499369083862,-0.5426718547341114,-0.7372549019607844,-0.38434424353398944
1499369083878,-0.5467002365148392,-0.7428702220187686,-0.3820248722056916
1499369083894,-0.5484092469672692,-0.74189364461738,-0.37921721217669946
1499369083910,-0.5510948348210878,-0.7398184176394293,-0.38141451132982374
1499369083926,-0.5554894331273363,-0.7437247272449836,-0.3772640573739223
1499369083942,-0.5580529488059813,-0.7426260776684215,-0.3786068513008316
1499369083958,-0.5603723201342792,-0.742748149843595,-0.37555504692149233
1499369083974,-0.5595178149080642,-0.7440909437705043,-0.3739681086442359
1499369083990,-0.5576867322804606,-0.7395742732890822,-0.37335774776836805
1499369084006,-0.5595178149080642,-0.7367666132600901,-0.3781185626001373
1499369084022,-0.561837186236362,-0.7323720149538415,-0.3794613565270466
1499369084038,-0.5619592584115356,-0.7267566948958573,-0.3778744182497902
1499369084055,-0.5639124132143132,-0.7282215609979401,-0.380193789578088
1499369084071,-0.5639124132143132,-0.7263904783703365,-0.38178072785534445
1499369084087,-0.5626916914625775,-0.7255359731441215,-0.3854428931105516
1499369084103,-0.5647669184405282,-0.7238269626916916,-0.387884336614023
1499369084119,-0.5640344853894868,-0.7232166018158237,-0.383611810482948
1499369084135,-0.5680628671702146,-0.7256580453192951,-0.3841000991836423
1499369084151,-0.569649805447471,-0.724559395742733,-0.3815365835049973
1499369084167,-0.5717250324254217,-0.7278553444724194,-0.3806820782787823
1499369084183,-0.5724574654764631,-0.7277332722972458,-0.3731136034180209
1499369084199,-0.5752651255054553,-0.7273670557717251,-0.37177080949111163
1499369084215,-0.576485847257191,-0.7266346227206837,-0.37262531471732663
1499369084231,-0.5736781872281989,-0.7263904783703365,-0.3765316243228809
1499369084247,-0.5741664759288931,-0.7244373235675594,-0.3811703669794766
1499369084263,-0.5728236820019839,-0.724559395742733,-0.3815365835049973
1499369084279,-0.5734340428778517,-0.7216296635385673,-0.3756771190966659
1499369084295,-0.5717250324254217,-0.7169909208819716,-0.37286945906767377
1499369084311,-0.5741664759288931,-0.7150377660791944,-0.3731136034180209
1499369084327,-0.5741664759288931,-0.7128404669260702,-0.3703059433890288
1499369084343,-0.5755092698558024,-0.7089341573205159,-0.37250324254215306
1499369084359,-0.5763637750820174,-0.7105210955977723,-0.37372396429388877
1499369084375,-0.579049362935836,-0.7133287556267645,-0.3689631494621195
1499369084391,-0.5791714351110095,-0.7127183947508966,-0.36749828336003665
1499369084407,-0.5784390020599681,-0.7135728999771116,-0.36578927290760666
1499369084423,-0.5835660334172581,-0.7218738078889144,-0.3629816128786145
1499369084439,-0.5857633325703824,-0.7193102922102694,-0.3626153963530938
1499369084455,-0.5916227969787138,-0.7229724574654766,-0.36749828336003665
1499369084471,-0.5922331578545816,-0.7216296635385673,-0.3644464789806974
1499369084487,-0.5908903639276724,-0.7239490348668651,-0.3609063859006638
1499369084503,-0.5888151369497217,-0.7199206530861373,-0.35822079804684526
1499369084519,-0.5896696421759366,-0.7213855191882201,-0.35480277714198527
1499369084535,-0.5886930647745481,-0.7207751583123523,-0.3488212405584803
1499369084551,-0.5901579308766309,-0.7210193026626994,-0.34430457007705817
1499369084567,-0.5943083848325323,-0.7215075913633937,-0.34686808575570316
1499369084583,-0.5966277561608302,-0.7190661478599223,-0.3493095292591746
1499369084599,-0.5935759517814909,-0.7171129930571452,-0.3458915083543146
1499369084615,-0.5912565804531931,-0.7197985809109637,-0.34357213702601674
1499369084631,-0.5940642404821852,-0.722850385290303,-0.34320592050049603
1499369084647,-0.5969939726863509,-0.7201647974364844,-0.34430457007705817
1499369084663,-0.6027313649195087,-0.7169909208819716,-0.34064240482185104
1499369084679,-0.6182345311665522,-0.7144274052033266,-0.37470054169527733
1499369084695,-0.6450904097047379,-0.7191882200350959,-0.41571679255359717
1499369084711,-0.6442359044785229,-0.7560540169375143,-0.42706950484473927
1499369084727,-0.6349584191653315,-0.7785152971694513,-0.38971541924162656
1499369084743,-0.621164263370718,-0.7769283588921949,-0.3651789120317388
1499369084759,-0.6300755321583886,-0.7471427481498436,-0.3710383764400702
1499369084775,-0.6433813992523079,-0.7046616311894409,-0.3866636148622873
1499369084791,-0.641916533150225,-0.6835431448844127,-0.38727397573815514
1499369084807,-0.5875944151979859,-0.6758525978484777,-0.3773861295490959
1499369084823,-0.567086289768826,-0.6793926909285113,-0.3626153963530938
1499369084839,-0.5606164644846263,-0.6692607003891049,-0.3655451285572595
1499369084855,-0.5467002365148392,-0.6666971847104599,-0.3639581902800031
1499369084871,-0.5286335545891507,-0.6707255664911878,-0.3621271076523995
1499369084887,-0.52997634851606,-0.6784161135271227,-0.36578927290760666
1499369084903,-0.525703822384985,-0.7152819104295416,-0.31537346456092186
1499369084919,-0.5281452658884564,-0.7282215609979401,-0.3062180514229036
1499369084935,-0.5285114824139772,-0.7390859845883879,-0.3202563515678647
1499369084951,-0.5420614938582435,-0.7594720378423743,-0.3369802395666439
1499369084967,-0.5728236820019839,-0.7622796978713664,-0.3446707866025789
1499369084983,-0.5971160448615245,-0.7387197680628672,-0.382757305256733
1499369084999,-0.6248264286259251,-0.7174792095826659,-0.3773861295490959
1499369085016,-0.6127412832837416,-0.7029526207370109,-0.3501640344853896
1499369085032,-0.5831998168917374,-0.6967269398031588,-0.3395437552452889
1499369085048,-0.5560997940032042,-0.6841535057602806,-0.34564736400396745
1499369085064,-0.5617151140611885,-0.6782940413519492,-0.3467460135805296
1499369085080,-0.586739909971771,-0.6708476386663613,-0.3345387960631725
1499369085096,-0.5910124361028459,-0.6668192568856335,-0.3194018463416497
1499369085112,-0.5785610742351417,-0.684031433585107,-0.3007248035400929
1499369085128,-0.5873502708476388,-0.6962386511024645,-0.29974822613870433
1499369085144,-0.6128633554589151,-0.7007553215838866,-0.3040207522697793
1499369085160,-0.6205539024948501,-0.7051499198901352,-0.3075608453498129
1499369085176,-0.6033417257953766,-0.7169909208819716,-0.3134203097581447
1499369085192,-0.5933318074311438,-0.7360341802090486,-0.3277027542534525
1499369085208,-0.5962615396353095,-0.754711223010605,-0.3436942092011903
1499369085224,-0.5936980239566645,-0.7677729457541771,-0.35944151979858097
1499369085240,-0.5751430533302817,-0.7855954833295185,-0.3639581902800031
1499369085256,-0.5685511558709089,-0.7844968337529563,-0.36920729381246664
1499369085272,-0.5757534142061496,-0.7630121309224078,-0.37091630426489663
1499369085288,-0.5880827038986802,-0.7315175097276265,-0.37177080949111163
1499369085304,-0.601510643167773,-0.7052719920653088,-0.3703059433890288
1499369085320,-0.6145723659113451,-0.6900129701686124,-0.3609063859006638
1499369085336,-0.6206759746700237,-0.6837872892347598,-0.354314488441291
1499369085352,-0.6253147173266194,-0.6858625162127105,-0.36115053025101096
1499369085368,-0.6237277790493629,-0.6968490119783324,-0.36127260242618453
1499369085384,-0.6098115510795759,-0.7003891050583659,-0.353459983215076
1499369085400,-0.6028534370946823,-0.7067368581673916,-0.34613565270466173
1499369085416,-0.5935759517814909,-0.7121080338750287,-0.3320973525597011
1499369085432,-0.5925993743801024,-0.7189440756847487,-0.3291676203555354
1499369085448,-0.5944304570077059,-0.7278553444724194,-0.3320973525597011
1499369085464,-0.5984588387884338,-0.7315175097276265,-0.3455252918287939
1499369085480,-0.6050507362478066,-0.730540932326238,-0.352605477988861
1499369085496,-0.6039520866712444,-0.7284657053482873,-0.3621271076523995
1499369085512,-0.5962615396353095,-0.7251697566186008,-0.36786449988555736
1499369085528,-0.5938200961318381,-0.7152819104295416,-0.3659113450827802
1499369085544,-0.5934538796063173,-0.7052719920653088,-0.3656672007324331
1499369085560,-0.5879606317235067,-0.7007553215838866,-0.36249332417792024
1499369085576,-0.5888151369497217,-0.6980697337300681,-0.3610284580758374
1499369085592,-0.5934538796063173,-0.7049057755397881,-0.3667658503089952
1499369085608,-0.5984588387884338,-0.7006332494087131,-0.37177080949111163
1499369085624,-0.5945525291828795,-0.6979476615548945,-0.3768978408484016
1499369085640,-0.5901579308766309,-0.7001449607080188,-0.37921721217669946
1499369085656,-0.5928435187304495,-0.7049057755397881,-0.3781185626001373
1499369085672,-0.597238117036698,-0.7039291981383995,-0.3823910887312123
1499369085688,-0.6009002822919052,-0.7088120851453423,-0.38422217135881587
1499369085704,-0.5987029831387809,-0.7116197451743345,-0.3849546044098573
1499369085720,-0.6001678492408637,-0.7103990234225988,-0.38385595483329515
1499369085736,-0.603219653620203,-0.7089341573205159,-0.38471046005951015
1499369085752,-0.6038300144960709,-0.7049057755397881,-0.3811703669794766
1499369085768,-0.5995574883649959,-0.7049057755397881,-0.38043793392843517
1499369085784,-0.5943083848325323,-0.7053940642404823,-0.38507667658503086
1499369085800,-0.5902800030518045,-0.7057602807660031,-0.38641947051194014
1499369085816,-0.5838101777676052,-0.7016098268101016,-0.39093614099336227
1499369085832,-0.5801480125123981,-0.692698558022431,-0.39227893492027155
1499369085848,-0.5741664759288931,-0.6853742275120163,-0.39362172884718083
1499369085864,-0.5711146715495539,-0.6812237735561149,-0.3954528114747844
1499369085880,-0.5729457541771574,-0.681467917906462,-0.39728389410238796
1499369085896,-0.5811245899137867,-0.6839093614099334,-0.39777218280308224
1499369085912,-0.5884489204242009,-0.6845197222858013,-0.3928892957961394
1499369085929,-0.5911345082780195,-0.6885481040665296,-0.387884336614023
1499369085945,-0.5919890135042345,-0.6966048676279852,-0.3764095521477073
1499369085961,-0.5918669413290609,-0.7025864042114902,-0.3646906233310445
1499369085977,-0.5902800030518045,-0.7107652399481195,-0.35065232318608386
1499369085993,-0.5902800030518045,-0.7208972304875259,-0.3396658274204625
1499369086009,-0.5950408178835738,-0.7282215609979401,-0.33856717784390034
1499369086025,-0.5994354161898223,-0.7353017471580072,-0.3411306935225453
1499369086041,-0.6055390249485009,-0.7333485923552301,-0.346623941405356
1499369086057,-0.6076142519264516,-0.7321278706034944,-0.35407034409094384
1499369086073,-0.6082246128023194,-0.7250476844434273,-0.3600518806744488
1499369086089,-0.6044403753719387,-0.7162584878309302,-0.36151674677653167
1499369086105,-0.598947127489128,-0.7080796520943009,-0.3672541390096895
1499369086121,-0.5943083848325323,-0.7024643320363166,-0.3739681086442359
1499369086137,-0.5895475700007631,-0.6963607232776381,-0.3803158617532616
1499369086153,-0.5875944151979859,-0.6914778362706953,-0.38434424353398944
1499369086169,-0.5849088273441674,-0.6896467536430917,-0.3915465018692301
1499369086185,-0.5838101777676052,-0.6881818875410088,-0.39179064621957727
1499369086201,-0.5842984664682995,-0.6896467536430917,-0.3903257801174944
1499369086217,-0.5860074769207295,-0.6919661249713895,-0.39191271839475084
1499369086233,-0.5869840543221181,-0.6947737850003817,-0.3877622644388494
1499369086249,-0.5879606317235067,-0.6942854962996874,-0.38178072785534445
1499369086265,-0.5886930647745481,-0.6970931563286795,-0.37885099565117875
1499369086281,-0.5895475700007631,-0.7019760433356224,-0.3710383764400702
1499369086297,-0.5880827038986802,-0.7045395590142673,-0.3648126955062181
1499369086313,-0.5900358587014574,-0.7079575799191273,-0.36322575722896167
1499369086329,-0.5908903639276724,-0.7096665903715573,-0.36200503547722596
1499369086345,-0.5936980239566645,-0.711741817349508,-0.3618829633020524
1499369086361,-0.5941863126573588,-0.7118638895246816,-0.3605401693751431
1499369086377,-0.5961394674601359,-0.712596322575723,-0.3606622415503167
1499369086393,-0.5962615396353095,-0.7099107347219045,-0.36163881895170524
1499369086409,-0.5968719005111773,-0.7093003738460366,-0.3610284580758374
1499369086425,-0.597238117036698,-0.7089341573205159,-0.3626153963530938
1499369086441,-0.5977264057373923,-0.7075913633936066,-0.3631036850537881
1499369086457,-0.5974822613870452,-0.707469291218433,-0.36530098420691237
1499369086473,-0.5967498283360038,-0.7085679407949952,-0.3672541390096895
1499369086489,-0.5950408178835738,-0.7075913633936066,-0.36578927290760666
1499369086505,-0.5934538796063173,-0.7062485694666973,-0.3698176546883345
1499369086521,-0.5925993743801024,-0.7055161364156559,-0.37177080949111163
1499369086537,-0.5923552300297552,-0.7030746929121845,-0.37250324254215306
1499369086553,-0.5896696421759366,-0.7019760433356224,-0.37335774776836805
1499369086569,-0.5900358587014574,-0.7005111772335395,-0.37213702601663234
1499369086585,-0.5894254978255895,-0.7003891050583659,-0.3720149538414588
1499369086601,-0.5890592813000688,-0.6992904554818038,-0.37079423208972306
1499369086617,-0.5874723430228124,-0.7008773937590602,-0.36884107728694593
1499369086633,-0.5879606317235067,-0.7029526207370109,-0.3693293659876402
1499369086649,-0.5910124361028459,-0.7060044251163502,-0.3665217059586481
1499369086665,-0.5913786526283666,-0.7067368581673916,-0.36713206683451594
1499369086681,-0.5913786526283666,-0.7078355077439538,-0.36871900511177236
1499369086697,-0.5917448691538874,-0.7055161364156559,-0.3761654077973602
1499369086713,-0.5941863126573588,-0.7031967650873581,-0.37970550087739374
1499369086729,-0.5956511787594416,-0.7052719920653088,-0.3790951400015259
1499369086745,-0.5939421683070116,-0.7068589303425652,-0.3757991912718395
1499369086761,-0.5941863126573588,-0.7063706416418709,-0.37079423208972306
1499369086777,-0.5950408178835738,-0.7064927138170445,-0.36530098420691237
1499369086793,-0.5961394674601359,-0.7086900129701688,-0.3617608911268788
1499369086809,-0.5958953231097888,-0.7079575799191273,-0.3618829633020524
1499369086825,-0.5951628900587473,-0.706614785992218,-0.3593194476234074
1499369086842,-0.5929655909056231,-0.7053940642404823,-0.36237125200274667
1499369086858,-0.5930876630807966,-0.7062485694666973,-0.36237125200274667
1499369086874,-0.5924773022049288,-0.7063706416418709,-0.3638361181048295
1499369086890,-0.5915007248035402,-0.7082017242694745,-0.3639581902800031
1499369086906,-0.5911345082780195,-0.7090562294956895,-0.36798657206073093
1499369086922,-0.5908903639276724,-0.7069810025177388,-0.3677424277103838
1499369086938,-0.5932097352559702,-0.7058823529411766,-0.3668879224841688
1499369086954,-0.5934538796063173,-0.7031967650873581,-0.36908522163729307
1499369086970,-0.5912565804531931,-0.7020981155107959,-0.36664377813382165
1499369086986,-0.5922331578545816,-0.7047837033646145,-0.36749828336003665
1499369087002,-0.5918669413290609,-0.7036850537880524,-0.3673762111848631
1499369087018,-0.5925993743801024,-0.7049057755397881,-0.37335774776836805
1499369087034,-0.5941863126573588,-0.7049057755397881,-0.3710383764400702
1499369087050,-0.5928435187304495,-0.7069810025177388,-0.37091630426489663
1499369087066,-0.5939421683070116,-0.7047837033646145,-0.37262531471732663
1499369087082,-0.595529106584268,-0.706614785992218,-0.36908522163729307
1499369087098,-0.5945525291828795,-0.7067368581673916,-0.3667658503089952
1499369087114,-0.5943083848325323,-0.7097886625467309,-0.3651789120317388
1499369087130,-0.5945525291828795,-0.7071030746929123,-0.3663996337834745
1499369087146,-0.5940642404821852,-0.7071030746929123,-0.36530098420691237
1499369087162,-0.5908903639276724,-0.7053940642404823,-0.36371404592965595
1499369087178,-0.5906462195773252,-0.7084458686198216,-0.36285954070344095
1499369087194,-0.5924773022049288,-0.7071030746929123,-0.36530098420691237
1499369087210,-0.5929655909056231,-0.7071030746929123,-0.36884107728694593
1499369087226,-0.5929655909056231,-0.7047837033646145,-0.3672541390096895
1499369087242,-0.5933318074311438,-0.7020981155107959,-0.36798657206073093
1499369087258,-0.5922331578545816,-0.7033188372625316,-0.3648126955062181
1499369087274,-0.5919890135042345,-0.7038071259632259,-0.36871900511177236
1499369087290,-0.5940642404821852,-0.7057602807660031,-0.3643244068055238
1499369087306,-0.5933318074311438,-0.7058823529411766,-0.3677424277103838
1499369087322,-0.5956511787594416,-0.7068589303425652,-0.36798657206073093
1499369087338,-0.5967498283360038,-0.7071030746929123,-0.36749828336003665
1499369087354,-0.598092622262913,-0.707469291218433,-0.36871900511177236
1499369087370,-0.5951628900587473,-0.7080796520943009,-0.3684748607614252
1499369087386,-0.5952849622339209,-0.7071030746929123,-0.3638361181048295
1499369087402,-0.5946746013580531,-0.7051499198901352,-0.36627756160830094
1499369087418,-0.5932097352559702,-0.7040512703135731,-0.3648126955062181
1499369087434,-0.5905241474021516,-0.7045395590142673,-0.3672541390096895
1499369087450,-0.5905241474021516,-0.7031967650873581,-0.36578927290760666
1499369087466,-0.5906462195773252,-0.7046616311894409,-0.3685969329365988
1499369087482,-0.5921110856794081,-0.7063706416418709,-0.36957351033798735
1499369087498,-0.5910124361028459,-0.7057602807660031,-0.36884107728694593
1499369087514,-0.5933318074311438,-0.7049057755397881,-0.36615548943312737
1499369087530,-0.5945525291828795,-0.7039291981383995,-0.3681086442359045
1499369087546,-0.5962615396353095,-0.7058823529411766,-0.36993972686350807
1499369087562,-0.5979705500877395,-0.7068589303425652,-0.36908522163729307
1499369087578,-0.5977264057373923,-0.7077134355687802,-0.36920729381246664
1499369087594,-0.5973601892118716,-0.707469291218433,-0.37079423208972306
1499369087610,-0.5951628900587473,-0.7069810025177388,-0.3701838712138552
1499369087626,-0.595529106584268,-0.708323796444648,-0.36884107728694593
1499369087642,-0.5958953231097888,-0.7078355077439538,-0.37006179903868164
1499369087658,-0.5944304570077059,-0.706614785992218,-0.3681086442359045
1499369087674,-0.5940642404821852,-0.7064927138170445,-0.36530098420691237
1499369087690,-0.5913786526283666,-0.7036850537880524,-0.36615548943312737
1499369087706,-0.5889372091248952,-0.7057602807660031,-0.36505683985656523
1499369087722,-0.5891813534752424,-0.7055161364156559,-0.3663996337834745
1499369087738,-0.5895475700007631,-0.7060044251163502,-0.36798657206073093
1499369087754,-0.5907682917524988,-0.7047837033646145,-0.3660334172579538
1499369087770,-0.5918669413290609,-0.7019760433356224,-0.3684748607614252
1499369087786,-0.5936980239566645,-0.7040512703135731,-0.3693293659876402
1499369087803,-0.5951628900587473,-0.7049057755397881,-0.36749828336003665
1499369087819,-0.5946746013580531,-0.7036850537880524,-0.36493476768139166
1499369087835,-0.5954070344090945,-0.7046616311894409,-0.3639581902800031
1499369087851,-0.5945525291828795,-0.7063706416418709,-0.3643244068055238
1499369087867,-0.5947966735332266,-0.7079575799191273,-0.3648126955062181
1499369087883,-0.5949187457084002,-0.7069810025177388,-0.36408026245517666
1499369087899,-0.5947966735332266,-0.7064927138170445,-0.3646906233310445
1499369087915,-0.5936980239566645,-0.7072251468680859,-0.36664377813382165
1499369087931,-0.5930876630807966,-0.7060044251163502,-0.3643244068055238
1499369087947,-0.5927214465552759,-0.7056382085908295,-0.36835278858625164
1499369087963,-0.5933318074311438,-0.7050278477149616,-0.36700999465934236
1499369087979,-0.5919890135042345,-0.7061264972915238,-0.3668879224841688
1499369087995,-0.5911345082780195,-0.7078355077439538,-0.36835278858625164
1499369088011,-0.5902800030518045,-0.7055161364156559,-0.36615548943312737
1499369088027,-0.5943083848325323,-0.7061264972915238,-0.36713206683451594
1499369088043,-0.5936980239566645,-0.7078355077439538,-0.3668879224841688
1499369088059,-0.5952849622339209,-0.7068589303425652,-0.3651789120317388
1499369088075,-0.5946746013580531,-0.7084458686198216,-0.3638361181048295
1499369088091,-0.5951628900587473,-0.7079575799191273,-0.3643244068055238
1499369088107,-0.5958953231097888,-0.7075913633936066,-0.3626153963530938
1499369088123,-0.597238117036698,-0.7103990234225988,-0.36237125200274667
1499369088139,-0.5967498283360038,-0.7116197451743345,-0.36249332417792024
1499369088155,-0.5988250553139545,-0.7112535286488137,-0.36285954070344095
1499369088171,-0.5985809109636073,-0.7111314564736402,-0.36163881895170524
1499369088187,-0.5971160448615245,-0.7114976729991609,-0.35748836499580383
1499369088203,-0.598092622262913,-0.7082017242694745,-0.3588311589227131
1499369088219,-0.5957732509346152,-0.7060044251163502,-0.35663385976958883
1499369088235,-0.5928435187304495,-0.707469291218433,-0.3580987258716717
1499369088251,-0.5901579308766309,-0.7088120851453423,-0.3591973754482338
1499369088267,-0.5888151369497217,-0.7097886625467309,-0.3579766536964981
1499369088283,-0.5883268482490274,-0.7086900129701688,-0.3639581902800031
1499369088299,-0.5890592813000688,-0.7061264972915238,-0.3660334172579538
1499369088315,-0.5896696421759366,-0.7053940642404823,-0.3685969329365988
1499369088331,-0.5919890135042345,-0.7014877546349281,-0.3646906233310445
1499369088347,-0.5934538796063173,-0.7019760433356224,-0.3660334172579538
1499369088363,-0.5943083848325323,-0.7033188372625316,-0.36334782940413524
1499369088379,-0.596383611810483,-0.7061264972915238,-0.3646906233310445
1499369088395,-0.598092622262913,-0.7089341573205159,-0.36542305638208594
1499369088411,-0.6010223544670787,-0.7096665903715573,-0.36505683985656523
1499369088427,-0.6021210040436409,-0.7114976729991609,-0.3635919737544824
1499369088443,-0.6018768596932937,-0.7119859616998552,-0.36237125200274667
1499369088459,-0.599801632715343,-0.7130846112764173,-0.36200503547722596
1499369088475,-0.5990691996643016,-0.712596322575723,-0.36078431372549025
1499369088491,-0.5954070344090945,-0.7093003738460366,-0.3621271076523995
1499369088507,-0.5913786526283666,-0.7079575799191273,-0.3584649423971924
1499369088523,-0.5900358587014574,-0.7055161364156559,-0.35834287022201883
1499369088539,-0.5883268482490274,-0.7044174868390938,-0.3609063859006638
1499369088555,-0.5900358587014574,-0.7038071259632259,-0.3606622415503167
1499369088571,-0.5901579308766309,-0.7038071259632259,-0.3605401693751431
1499369088587,-0.5918669413290609,-0.7049057755397881,-0.35992980849927525
1499369088603,-0.5917448691538874,-0.7062485694666973,-0.35992980849927525
1499369088619,-0.5943083848325323,-0.7069810025177388,-0.36115053025101096
1499369088635,-0.5960173952849623,-0.7072251468680859,-0.3579766536964981
1499369088651,-0.598092622262913,-0.709178301670863,-0.3601739528496224
1499369088667,-0.5982146944380866,-0.7090562294956895,-0.3626153963530938
1499369088683,-0.5973601892118716,-0.7103990234225988,-0.36163881895170524
1499369088699,-0.597238117036698,-0.7090562294956895,-0.36237125200274667
1499369088715,-0.5984588387884338,-0.7105210955977723,-0.3598077363241017
1499369088732,-0.5984588387884338,-0.711741817349508,-0.3596856641489281
1499369088748,-0.5960173952849623,-0.7110093842984666,-0.3591973754482338
1499369088764,-0.5961394674601359,-0.7084458686198216,-0.3593194476234074
1499369088780,-0.5951628900587473,-0.7057602807660031,-0.35907530327306025
1499369088796,-0.5941863126573588,-0.706614785992218,-0.3601739528496224
1499369088812,-0.5932097352559702,-0.7084458686198216,-0.36041809719996953
1499369088828,-0.5952849622339209,-0.7077134355687802,-0.36322575722896167
1499369088844,-0.5946746013580531,-0.706614785992218,-0.3629816128786145
1499369088860,-0.5925993743801024,-0.7055161364156559,-0.36249332417792024
1499369088876,-0.5928435187304495,-0.7040512703135731,-0.36078431372549025
1499369088892,-0.5939421683070116,-0.7050278477149616,-0.3622491798275731
1499369088908,-0.5958953231097888,-0.7052719920653088,-0.35992980849927525
1499369088924,-0.596383611810483,-0.707469291218433,-0.36151674677653167
1499369088940,-0.5974822613870452,-0.709178301670863,-0.3617608911268788
1499369088956,-0.6005340657663845,-0.7103990234225988,-0.36151674677653167
1499369088972,-0.6007782101167316,-0.7101548790722516,-0.36163881895170524
1499369088988,-0.6000457770656902,-0.709178301670863,-0.35907530327306025
1499369089004,-0.598947127489128,-0.710032806897078,-0.3593194476234074
1499369089020,-0.5987029831387809,-0.7102769512474252,-0.3593194476234074
1499369089036,-0.5967498283360038,-0.7077134355687802,-0.35822079804684526
1499369089052,-0.5952849622339209,-0.7077134355687802,-0.3600518806744488
1499369089068,-0.5946746013580531,-0.7064927138170445,-0.36041809719996953
1499369089084,-0.5946746013580531,-0.7078355077439538,-0.3579766536964981
1499369089100,-0.5940642404821852,-0.706614785992218,-0.3591973754482338
1499369089116,-0.5940642404821852,-0.7063706416418709,-0.3584649423971924
1499369089132,-0.5940642404821852,-0.7060044251163502,-0.3571221484702831
1499369089148,-0.5939421683070116,-0.7056382085908295,-0.3591973754482338
1499369089164,-0.5939421683070116,-0.7062485694666973,-0.35822079804684526
1499369089180,-0.5947966735332266,-0.7064927138170445,-0.3571221484702831
1499369089196,-0.5965056839856566,-0.7078355077439538,-0.3609063859006638
1499369089212,-0.5966277561608302,-0.7084458686198216,-0.3593194476234074
1499369089228,-0.5971160448615245,-0.7078355077439538,-0.3596856641489281
1499369089244,-0.596383611810483,-0.707469291218433,-0.3609063859006638
1499369089260,-0.5967498283360038,-0.7071030746929123,-0.36200503547722596
1499369089276,-0.5960173952849623,-0.707469291218433,-0.3588311589227131
1499369089292,-0.5969939726863509,-0.7077134355687802,-0.3600518806744488
1499369089308,-0.5965056839856566,-0.7055161364156559,-0.3598077363241017
1499369089324,-0.5967498283360038,-0.7073472190432595,-0.3596856641489281
1499369089340,-0.5952849622339209,-0.7084458686198216,-0.36029602502479596
1499369089356,-0.597238117036698,-0.7090562294956895,-0.36151674677653167
1499369089372,-0.5969939726863509,-0.710032806897078,-0.3596856641489281
1499369089388,-0.5965056839856566,-0.7088120851453423,-0.3606622415503167
1499369089404,-0.5965056839856566,-0.7067368581673916,-0.35944151979858097
1499369089420,-0.5958953231097888,-0.7051499198901352,-0.3579766536964981
1499369089436,-0.5957732509346152,-0.7049057755397881,-0.35700007629510955
1499369089452,-0.5968719005111773,-0.7068589303425652,-0.35858701457236597
1499369089468,-0.596383611810483,-0.7080796520943009,-0.3600518806744488
1499369089484,-0.5993133440146488,-0.708323796444648,-0.3606622415503167
1499369089500,-0.600656137941558,-0.7114976729991609,-0.35944151979858097
1499369089516,-0.600656137941558,-0.7111314564736402,-0.36078431372549025
1499369089532,-0.6002899214160373,-0.7094224460212102,-0.3589532310978867
1499369089548,-0.5978484779125659,-0.7095445181963838,-0.35443656061646456
1499369089564,-0.5962615396353095,-0.7088120851453423,-0.3559014267185474
1499369089580,-0.5949187457084002,-0.7077134355687802,-0.35822079804684526
1499369089596,-0.5952849622339209,-0.707469291218433,-0.35858701457236597
1499369089612,-0.5929655909056231,-0.7077134355687802,-0.3591973754482338
1499369089628,-0.5944304570077059,-0.708323796444648,-0.36041809719996953
1499369089644,-0.5938200961318381,-0.707469291218433,-0.35956359197375454
1499369089661,-0.5935759517814909,-0.7060044251163502,-0.3596856641489281
1499369089677,-0.5932097352559702,-0.7050278477149616,-0.35992980849927525
1499369089693,-0.5946746013580531,-0.7049057755397881,-0.36285954070344095
1499369089709,-0.5950408178835738,-0.7031967650873581,-0.3609063859006638
1499369089725,-0.5950408178835738,-0.7041733424887466,-0.36200503547722596
1499369089741,-0.595529106584268,-0.7069810025177388,-0.3627374685282674
1499369089757,-0.5966277561608302,-0.7072251468680859,-0.3609063859006638
1499369089773,-0.5969939726863509,-0.7077134355687802,-0.3643244068055238
1499369089789,-0.5969939726863509,-0.7086900129701688,-0.36237125200274667
1499369089805,-0.5978484779125659,-0.709178301670863,-0.35748836499580383
1499369089821,-0.597238117036698,-0.7089341573205159,-0.35736629282063026
1499369089837,-0.5967498283360038,-0.7073472190432595,-0.35565728236820027
1499369089853,-0.5976043335622188,-0.708323796444648,-0.35858701457236597
1499369089869,-0.5947966735332266,-0.7086900129701688,-0.35992980849927525
1499369089885,-0.596383611810483,-0.7103990234225988,-0.36615548943312737
1499369089901,-0.5958953231097888,-0.7097886625467309,-0.3635919737544824
1499369089917,-0.5957732509346152,-0.707469291218433,-0.3638361181048295
1499369089933,-0.5950408178835738,-0.7045395590142673,-0.36408026245517666
1499369089949,-0.5956511787594416,-0.7027084763866638,-0.36078431372549025
1499369089965,-0.5946746013580531,-0.7028305485618374,-0.36078431372549025
1499369089981,-0.5954070344090945,-0.7044174868390938,-0.3634699015793088
1499369089997,-0.5961394674601359,-0.7075913633936066,-0.3621271076523995
1499369090013,-0.5990691996643016,-0.709178301670863,-0.36420233463035023
1499369090029,-0.6001678492408637,-0.7118638895246816,-0.36237125200274667
1499369090045,-0.6000457770656902,-0.7097886625467309,-0.35956359197375454
1499369090061,-0.5987029831387809,-0.7116197451743345,-0.3579766536964981
1499369090077,-0.5973601892118716,-0.7085679407949952,-0.3572442206454567
1499369090093,-0.5973601892118716,-0.707469291218433,-0.3567559319447624
1499369090109,-0.5973601892118716,-0.7069810025177388,-0.3580987258716717
1499369090125,-0.5952849622339209,-0.7069810025177388,-0.3589532310978867
1499369090141,-0.5939421683070116,-0.7068589303425652,-0.3618829633020524
1499369090157,-0.5940642404821852,-0.7078355077439538,-0.3579766536964981
1499369090173,-0.5938200961318381,-0.7079575799191273,-0.35907530327306025
1499369090189,-0.5935759517814909,-0.7069810025177388,-0.3580987258716717
1499369090205,-0.5928435187304495,-0.7060044251163502,-0.35870908674753954
1499369090221,-0.5951628900587473,-0.7055161364156559,-0.36115053025101096
1499369090237,-0.5957732509346152,-0.7064927138170445,-0.35992980849927525
1499369090253,-0.5960173952849623,-0.7062485694666973,-0.3576104371709774
1499369090269,-0.5976043335622188,-0.708323796444648,-0.35907530327306025
1499369090285,-0.598092622262913,-0.7080796520943009,-0.36200503547722596
1499369090301,-0.5988250553139545,-0.7084458686198216,-0.3617608911268788
1499369090317,-0.5983367666132602,-0.7073472190432595,-0.36029602502479596
1499369090333,-0.5960173952849623,-0.7079575799191273,-0.3606622415503167
1499369090349,-0.5966277561608302,-0.7072251468680859,-0.3606622415503167
1499369090365,-0.5954070344090945,-0.7068589303425652,-0.35834287022201883
1499369090381,-0.5941863126573588,-0.7051499198901352,-0.35834287022201883
1499369090397,-0.5930876630807966,-0.7060044251163502,-0.3591973754482338
1499369090413,-0.5935759517814909,-0.708323796444648,-0.3609063859006638
1499369090429,-0.5967498283360038,-0.7072251468680859,-0.3618829633020524
1499369090445,-0.5968719005111773,-0.7068589303425652,-0.3626153963530938
1499369090461,-0.5976043335622188,-0.707469291218433,-0.36163881895170524
1499369090477,-0.5960173952849623,-0.7056382085908295,-0.3635919737544824
1499369090493,-0.596383611810483,-0.7057602807660031,-0.3609063859006638
1499369090509,-0.5982146944380866,-0.7071030746929123,-0.36163881895170524
1499369090525,-0.5988250553139545,-0.7067368581673916,-0.3600518806744488
1499369090541,-0.5982146944380866,-0.7075913633936066,-0.36200503547722596
1499369090558,-0.5996795605401695,-0.7093003738460366,-0.3634699015793088
1499369090574,-0.5971160448615245,-0.7097886625467309,-0.3609063859006638
1499369090590,-0.5958953231097888,-0.7082017242694745,-0.36078431372549025
1499369090606,-0.5956511787594416,-0.7061264972915238,-0.3579766536964981
1499369090622,-0.5945525291828795,-0.7036850537880524,-0.35651178759441526
1499369090638,-0.5946746013580531,-0.7034409094377052,-0.3584649423971924
1499369090654,-0.5930876630807966,-0.7039291981383995,-0.3601739528496224
1499369090670,-0.5938200961318381,-0.7056382085908295,-0.36041809719996953
1499369090686,-0.5949187457084002,-0.7078355077439538,-0.3601739528496224
1499369090702,-0.5966277561608302,-0.707469291218433,-0.36151674677653167
1499369090718,-0.5977264057373923,-0.7077134355687802,-0.3609063859006638
1499369090734,-0.5962615396353095,-0.7075913633936066,-0.3610284580758374
1499369090750,-0.597238117036698,-0.706614785992218,-0.3572442206454567
1499369090766,-0.5974822613870452,-0.7068589303425652,-0.35565728236820027
1499369090782,-0.598947127489128,-0.7072251468680859,-0.356878004119936
1499369090798,-0.598947127489128,-0.7075913633936066,-0.3591973754482338
1499369090814,-0.5971160448615245,-0.7084458686198216,-0.3600518806744488
1499369090830,-0.5993133440146488,-0.7080796520943009,-0.35907530327306025
1499369090846,-0.5978484779125659,-0.7067368581673916,-0.3591973754482338
1499369090862,-0.5983367666132602,-0.7071030746929123,-0.3584649423971924
1499369090878,-0.5973601892118716,-0.7071030746929123,-0.35748836499580383
1499369090894,-0.5966277561608302,-0.7045395590142673,-0.35748836499580383
1499369090910,-0.5968719005111773,-0.7055161364156559,-0.36115053025101096
1499369090926,-0.5940642404821852,-0.7067368581673916,-0.35907530327306025
1499369090942,-0.5938200961318381,-0.7055161364156559,-0.3617608911268788
1499369090958,-0.5945525291828795,-0.7058823529411766,-0.36078431372549025
1499369090974,-0.5952849622339209,-0.7062485694666973,-0.3589532310978867
1499369090990,-0.5973601892118716,-0.7062485694666973,-0.3635919737544824
1499369091006,-0.5979705500877395,-0.7060044251163502,-0.35907530327306025
1499369091022,-0.5991912718394752,-0.7057602807660031,-0.35822079804684526
1499369091038,-0.6005340657663845,-0.7053940642404823,-0.3593194476234074
1499369091054,-0.6010223544670787,-0.7073472190432595,-0.36029602502479596
1499369091070,-0.5993133440146488,-0.7084458686198216,-0.3613946746013581
1499369091086,-0.5995574883649959,-0.7077134355687802,-0.36127260242618453
1499369091102,-0.598947127489128,-0.7093003738460366,-0.36285954070344095
1499369091118,-0.5979705500877395,-0.708323796444648,-0.36322575722896167
1499369091134,-0.5967498283360038,-0.7064927138170445,-0.35748836499580383
1499369091150,-0.5957732509346152,-0.7060044251163502,-0.35748836499580383
1499369091166,-0.595529106584268,-0.7053940642404823,-0.35907530327306025
1499369091182,-0.5949187457084002,-0.7053940642404823,-0.35785458152132454
1499369091198,-0.5949187457084002,-0.7045395590142673,-0.35834287022201883
1499369091214,-0.5965056839856566,-0.7058823529411766,-0.3621271076523995
1499369091230,-0.5950408178835738,-0.7075913633936066,-0.3635919737544824
1499369091246,-0.5956511787594416,-0.7068589303425652,-0.36127260242618453
1499369091262,-0.595529106584268,-0.7075913633936066,-0.35858701457236597
1499369091278,-0.5956511787594416,-0.7055161364156559,-0.35834287022201883
1499369091294,-0.5983367666132602,-0.7058823529411766,-0.3596856641489281
1499369091310,-0.5977264057373923,-0.7051499198901352,-0.35944151979858097
1499369091326,-0.5977264057373923,-0.7056382085908295,-0.3596856641489281
1499369091342,-0.5979705500877395,-0.706614785992218,-0.3617608911268788
1499369091358,-0.5978484779125659,-0.7064927138170445,-0.3617608911268788
1499369091374,-0.5991912718394752,-0.7089341573205159,-0.36127260242618453
1499369091390,-0.598092622262913,-0.7061264972915238,-0.36127260242618453
1499369091406,-0.5982146944380866,-0.7057602807660031,-0.35944151979858097
1499369091422,-0.5976043335622188,-0.7062485694666973,-0.3606622415503167
1499369091438,-0.597238117036698,-0.7067368581673916,-0.36029602502479596
1499369091454,-0.5978484779125659,-0.7045395590142673,-0.35858701457236597
1499369091470,-0.5951628900587473,-0.7045395590142673,-0.3601739528496224
1499369091486,-0.5944304570077059,-0.708323796444648,-0.3613946746013581
1499369091502,-0.5951628900587473,-0.708323796444648,-0.36163881895170524
1499369091519,-0.5973601892118716,-0.7082017242694745,-0.3627374685282674
1499369091535,-0.6004119935912109,-0.7067368581673916,-0.3605401693751431
1499369091551,-0.5984588387884338,-0.7057602807660031,-0.3621271076523995
1499369091567,-0.5976043335622188,-0.7057602807660031,-0.3580987258716717
1499369091583,-0.6000457770656902,-0.706614785992218,-0.3601739528496224
1499369091599,-0.5990691996643016,-0.7071030746929123,-0.3596856641489281
1499369091615,-0.5999237048905166,-0.7090562294956895,-0.3606622415503167
1499369091631,-0.5988250553139545,-0.7080796520943009,-0.36115053025101096
1499369091647,-0.597238117036698,-0.7075913633936066,-0.3596856641489281
1499369091663,-0.5971160448615245,-0.7082017242694745,-0.36151674677653167
1499369091679,-0.5969939726863509,-0.7073472190432595,-0.35956359197375454
1499369091695,-0.5960173952849623,-0.7071030746929123,-0.3609063859006638
1499369091711,-0.5966277561608302,-0.7047837033646145,-0.35992980849927525
1499369091727,-0.5974822613870452,-0.7036850537880524,-0.35944151979858097
1499369091743,-0.5961394674601359,-0.7039291981383995,-0.36029602502479596
1499369091759,-0.5974822613870452,-0.7061264972915238,-0.3631036850537881
1499369091775,-0.5974822613870452,-0.7071030746929123,-0.3617608911268788
1499369091791,-0.5979705500877395,-0.7084458686198216,-0.3610284580758374
1499369091807,-0.5966277561608302,-0.7085679407949952,-0.35700007629510955
1499369091823,-0.595529106584268,-0.7064927138170445,-0.3600518806744488
1499369091839,-0.5947966735332266,-0.7071030746929123,-0.35785458152132454
1499369091855,-0.5973601892118716,-0.706614785992218,-0.35822079804684526
1499369091871,-0.596383611810483,-0.7060044251163502,-0.3598077363241017
1499369091887,-0.5961394674601359,-0.7050278477149616,-0.35822079804684526
1499369091903,-0.5958953231097888,-0.706614785992218,-0.3596856641489281
1499369091919,-0.5973601892118716,-0.7064927138170445,-0.3605401693751431
1499369091935,-0.5973601892118716,-0.7067368581673916,-0.3613946746013581
1499369091951,-0.5984588387884338,-0.7055161364156559,-0.36237125200274667
1499369091967,-0.5969939726863509,-0.7075913633936066,-0.36371404592965595
1499369091983,-0.5973601892118716,-0.7078355077439538,-0.3609063859006638
1499369091999,-0.5983367666132602,-0.7068589303425652,-0.35992980849927525
1499369092015,-0.5969939726863509,-0.7069810025177388,-0.36127260242618453
1499369092031,-0.5949187457084002,-0.7084458686198216,-0.35907530327306025
1499369092047,-0.595529106584268,-0.7079575799191273,-0.35956359197375454
1499369092063,-0.5945525291828795,-0.7071030746929123,-0.3596856641489281
1499369092079,-0.5935759517814909,-0.706614785992218,-0.36237125200274667
1499369092095,-0.5952849622339209,-0.7071030746929123,-0.36041809719996953
1499369092111,-0.5958953231097888,-0.7049057755397881,-0.3617608911268788
1499369092127,-0.5973601892118716,-0.7036850537880524,-0.3601739528496224
1499369092143,-0.5966277561608302,-0.7046616311894409,-0.3617608911268788
1499369092159,-0.5966277561608302,-0.7034409094377052,-0.3605401693751431
1499369092175,-0.5973601892118716,-0.7057602807660031,-0.36200503547722596
1499369092191,-0.5969939726863509,-0.7075913633936066,-0.3606622415503167
1499369092207,-0.5984588387884338,-0.7099107347219045,-0.36163881895170524
1499369092223,-0.5987029831387809,-0.7105210955977723,-0.3609063859006638
1499369092239,-0.5982146944380866,-0.7080796520943009,-0.3589532310978867
1499369092255,-0.5973601892118716,-0.7077134355687802,-0.3576104371709774
1499369092271,-0.5969939726863509,-0.7079575799191273,-0.3563897154192417
1499369092287,-0.5957732509346152,-0.7052719920653088,-0.3589532310978867
1499369092303,-0.5961394674601359,-0.7072251468680859,-0.3596856641489281
1499369092319,-0.5946746013580531,-0.7067368581673916,-0.36115053025101096
1499369092335,-0.5952849622339209,-0.7068589303425652,-0.36249332417792024
1499369092351,-0.5940642404821852,-0.7060044251163502,-0.3609063859006638
1499369092367,-0.5952849622339209,-0.7053940642404823,-0.3600518806744488
1499369092383,-0.5961394674601359,-0.7050278477149616,-0.3589532310978867
1499369092399,-0.5965056839856566,-0.7055161364156559,-0.3588311589227131
1499369092415,-0.5979705500877395,-0.7064927138170445,-0.3622491798275731
1499369092431,-0.597238117036698,-0.7075913633936066,-0.3629816128786145
1499369092448,-0.5978484779125659,-0.7088120851453423,-0.3610284580758374
1499369092464,-0.5973601892118716,-0.7078355077439538,-0.36163881895170524
1499369092480,-0.5979705500877395,-0.7090562294956895,-0.3593194476234074
1499369092496,-0.599801632715343,-0.7077134355687802,-0.36041809719996953
1499369092512,-0.5977264057373923,-0.7063706416418709,-0.36041809719996953
1499369092528,-0.5979705500877395,-0.7055161364156559,-0.35785458152132454
1499369092544,-0.5977264057373923,-0.7039291981383995,-0.3613946746013581
1499369092560,-0.5956511787594416,-0.7069810025177388,-0.36078431372549025
1499369092576,-0.5962615396353095,-0.7078355077439538,-0.36163881895170524
1499369092592,-0.5945525291828795,-0.7063706416418709,-0.36163881895170524
1499369092608,-0.5954070344090945,-0.7051499198901352,-0.35992980849927525
1499369092624,-0.5969939726863509,-0.7058823529411766,-0.35822079804684526
1499369092640,-0.5962615396353095,-0.7071030746929123,-0.3618829633020524
1499369092656,-0.5952849622339209,-0.7093003738460366,-0.3617608911268788
1499369092672,-0.597238117036698,-0.707469291218433,-0.36163881895170524
1499369092688,-0.5974822613870452,-0.7055161364156559,-0.3609063859006638
1499369092704,-0.5965056839856566,-0.7042954146639202,-0.36200503547722596
1499369092720,-0.5967498283360038,-0.7034409094377052,-0.35834287022201883
1499369092736,-0.5971160448615245,-0.7049057755397881,-0.36163881895170524
1499369092752,-0.5969939726863509,-0.7052719920653088,-0.36322575722896167
1499369092768,-0.5971160448615245,-0.7061264972915238,-0.3631036850537881
1499369092784,-0.5973601892118716,-0.708323796444648,-0.3631036850537881
1499369092800,-0.5969939726863509,-0.7088120851453423,-0.36505683985656523
1499369092816,-0.5973601892118716,-0.7077134355687802,-0.36237125200274667
1499369092832,-0.5968719005111773,-0.7089341573205159,-0.36249332417792024
1499369092848,-0.5985809109636073,-0.7077134355687802,-0.35748836499580383
1499369092864,-0.5965056839856566,-0.706614785992218,-0.36029602502479596
1499369092880,-0.5978484779125659,-0.7052719920653088,-0.3591973754482338
1499369092896,-0.597238117036698,-0.7050278477149616,-0.35944151979858097
1499369092912,-0.5974822613870452,-0.7050278477149616,-0.35956359197375454
1499369092928,-0.5954070344090945,-0.7067368581673916,-0.35907530327306025
1499369092944,-0.5969939726863509,-0.7078355077439538,-0.36029602502479596
1499369092960,-0.5952849622339209,-0.7071030746929123,-0.35858701457236597
1499369092976,-0.5978484779125659,-0.7068589303425652,-0.35736629282063026
1499369092992,-0.5984588387884338,-0.7062485694666973,-0.356878004119936
1499369093008,-0.5993133440146488,-0.7075913633936066,-0.3593194476234074
1499369093024,-0.5994354161898223,-0.7084458686198216,-0.3584649423971924
1499369093040,-0.5991912718394752,-0.7089341573205159,-0.36115053025101096
1499369093056,-0.5974822613870452,-0.709178301670863,-0.36200503547722596
1499369093072,-0.595529106584268,-0.7073472190432595,-0.35956359197375454
1499369093088,-0.5971160448615245,-0.7049057755397881,-0.36029602502479596
1499369093104,-0.5966277561608302,-0.7060044251163502,-0.3601739528496224
1499369093120,-0.596383611810483,-0.7044174868390938,-0.36115053025101096
1499369093136,-0.5969939726863509,-0.7058823529411766,-0.3617608911268788
1499369093152,-0.5954070344090945,-0.7067368581673916,-0.35907530327306025
1499369093168,-0.5949187457084002,-0.7077134355687802,-0.36237125200274667
1499369093184,-0.5960173952849623,-0.7079575799191273,-0.3617608911268788
1499369093200,-0.5967498283360038,-0.7053940642404823,-0.3606622415503167
1499369093216,-0.5965056839856566,-0.7060044251163502,-0.3621271076523995
1499369093232,-0.5978484779125659,-0.7085679407949952,-0.36249332417792024
1499369093248,-0.5979705500877395,-0.7061264972915238,-0.36285954070344095
1499369093264,-0.5962615396353095,-0.7069810025177388,-0.36371404592965595
1499369093280,-0.5960173952849623,-0.7073472190432595,-0.3618829633020524
1499369093296,-0.5962615396353095,-0.7053940642404823,-0.3631036850537881
1499369093312,-0.597238117036698,-0.7052719920653088,-0.35992980849927525
1499369093328,-0.5967498283360038,-0.7039291981383995,-0.3609063859006638
1499369093345,-0.5965056839856566,-0.7057602807660031,-0.3601739528496224
1499369093361,-0.5985809109636073,-0.7068589303425652,-0.3627374685282674
1499369093377,-0.5983367666132602,-0.7090562294956895,-0.36041809719996953
1499369093393,-0.5979705500877395,-0.7095445181963838,-0.36249332417792024
1499369093409,-0.5988250553139545,-0.7085679407949952,-0.3629816128786145
1499369093425,-0.597238117036698,-0.7080796520943009,-0.35944151979858097
1499369093441,-0.5974822613870452,-0.7056382085908295,-0.35834287022201883
1499369093457,-0.5958953231097888,-0.7045395590142673,-0.35700007629510955
1499369093473,-0.5956511787594416,-0.7056382085908295,-0.35748836499580383
1499369093489,-0.5958953231097888,-0.7071030746929123,-0.35870908674753954
1499369093505,-0.5946746013580531,-0.7064927138170445,-0.36237125200274667
1499369093521,-0.5954070344090945,-0.7075913633936066,-0.35858701457236597
1499369093537,-0.5945525291828795,-0.7062485694666973,-0.36041809719996953
1499369093553,-0.5954070344090945,-0.7058823529411766,-0.35858701457236597
1499369093569,-0.5960173952849623,-0.7047837033646145,-0.35907530327306025
1499369093585,-0.597238117036698,-0.7052719920653088,-0.3598077363241017
1499369093601,-0.5962615396353095,-0.7055161364156559,-0.36029602502479596
1499369093617,-0.5977264057373923,-0.7072251468680859,-0.35870908674753954
1499369093633,-0.5999237048905166,-0.707469291218433,-0.35907530327306025
1499369093649,-0.5991912718394752,-0.7089341573205159,-0.3609063859006638
1499369093665,-0.5982146944380866,-0.7089341573205159,-0.36041809719996953
1499369093681,-0.5984588387884338,-0.7078355077439538,-0.36029602502479596
1499369093697,-0.5968719005111773,-0.707469291218433,-0.3591973754482338
1499369093713,-0.5956511787594416,-0.7053940642404823,-0.35907530327306025
1499369093729,-0.5951628900587473,-0.7045395590142673,-0.36200503547722596
1499369093745,-0.5943083848325323,-0.7030746929121845,-0.3606622415503167
1499369093761,-0.5947966735332266,-0.7042954146639202,-0.3631036850537881
1499369093777,-0.5968719005111773,-0.7062485694666973,-0.3627374685282674
1499369093793,-0.5978484779125659,-0.706614785992218,-0.3610284580758374
1499369093809,-0.5990691996643016,-0.7046616311894409,-0.3626153963530938
1499369093825,-0.6000457770656902,-0.7057602807660031,-0.35944151979858097
1499369093841,-0.5995574883649959,-0.7082017242694745,-0.35822079804684526
1499369093857,-0.5988250553139545,-0.7093003738460366,-0.3580987258716717
1499369093873,-0.5977264057373923,-0.708323796444648,-0.35944151979858097
1499369093889,-0.5978484779125659,-0.7096665903715573,-0.3606622415503167
1499369093905,-0.5973601892118716,-0.7079575799191273,-0.3605401693751431
1499369093921,-0.5965056839856566,-0.7046616311894409,-0.3588311589227131
1499369093937,-0.5982146944380866,-0.7058823529411766,-0.3605401693751431
1499369093953,-0.5985809109636073,-0.7061264972915238,-0.35956359197375454
1499369093969,-0.5976043335622188,-0.7061264972915238,-0.3591973754482338
1499369093985,-0.5971160448615245,-0.7049057755397881,-0.3627374685282674
1499369094001,-0.5988250553139545,-0.7067368581673916,-0.3613946746013581
1499369094017,-0.5979705500877395,-0.7067368581673916,-0.36151674677653167
1499369094033,-0.5977264057373923,-0.7068589303425652,-0.3618829633020524
1499369094049,-0.5977264057373923,-0.7052719920653088,-0.35834287022201883
1499369094065,-0.5965056839856566,-0.7056382085908295,-0.35834287022201883
1499369094081,-0.596383611810483,-0.7071030746929123,-0.35870908674753954
1499369094097,-0.5962615396353095,-0.7053940642404823,-0.35870908674753954
1499369094113,-0.5967498283360038,-0.7079575799191273,-0.35992980849927525
1499369094129,-0.5960173952849623,-0.7067368581673916,-0.3605401693751431
1499369094145,-0.5958953231097888,-0.7080796520943009,-0.36041809719996953
1499369094161,-0.596383611810483,-0.7062485694666973,-0.3605401693751431
1499369094177,-0.5966277561608302,-0.7050278477149616,-0.35992980849927525
1499369094193,-0.5976043335622188,-0.7064927138170445,-0.36200503547722596
1499369094209,-0.5985809109636073,-0.7050278477149616,-0.36041809719996953
1499369094225,-0.6001678492408637,-0.7060044251163502,-0.35700007629510955
1499369094241,-0.5988250553139545,-0.7051499198901352,-0.36163881895170524
1499369094257,-0.598092622262913,-0.707469291218433,-0.35944151979858097
1499369094273,-0.5982146944380866,-0.7073472190432595,-0.3579766536964981
1499369094290,-0.5996795605401695,-0.7079575799191273,-0.3598077363241017
1499369094306,-0.5974822613870452,-0.7068589303425652,-0.3580987258716717
1499369094322,-0.5990691996643016,-0.7047837033646145,-0.35907530327306025
1499369094338,-0.5979705500877395,-0.7041733424887466,-0.3596856641489281
1499369094354,-0.5984588387884338,-0.7044174868390938,-0.36115053025101096
1499369094370,-0.597238117036698,-0.7064927138170445,-0.3591973754482338
1499369094386,-0.5976043335622188,-0.7056382085908295,-0.36237125200274667
1499369094402,-0.598092622262913,-0.7039291981383995,-0.35992980849927525
1499369094418,-0.5978484779125659,-0.7042954146639202,-0.3617608911268788
1499369094434,-0.5956511787594416,-0.7056382085908295,-0.3606622415503167
1499369094450,-0.5962615396353095,-0.7057602807660031,-0.3621271076523995
1499369094466,-0.596383611810483,-0.7050278477149616,-0.36200503547722596
1499369094482,-0.597238117036698,-0.7060044251163502,-0.35992980849927525
1499369094498,-0.5976043335622188,-0.7060044251163502,-0.36285954070344095
1499369094514,-0.5987029831387809,-0.7051499198901352,-0.3605401693751431
1499369094530,-0.600656137941558,-0.7056382085908295,-0.3588311589227131
1499369094546,-0.6002899214160373,-0.7061264972915238,-0.3601739528496224
1499369094562,-0.5999237048905166,-0.7053940642404823,-0.3588311589227131
1499369094578,-0.600656137941558,-0.7073472190432595,-0.3629816128786145
1499369094594,-0.5991912718394752,-0.7069810025177388,-0.36285954070344095
1499369094610,-0.5985809109636073,-0.706614785992218,-0.3605401693751431
1499369094626,-0.5988250553139545,-0.7057602807660031,-0.36127260242618453
1499369094642,-0.597238117036698,-0.7036850537880524,-0.3600518806744488
1499369094658,-0.5971160448615245,-0.7044174868390938,-0.36151674677653167
1499369094674,-0.5965056839856566,-0.7028305485618374,-0.3593194476234074
1499369094690,-0.5956511787594416,-0.7057602807660031,-0.3601739528496224
1499369094706,-0.5954070344090945,-0.7060044251163502,-0.3606622415503167
1499369094722,-0.5949187457084002,-0.7069810025177388,-0.36078431372549025
1499369094738,-0.5962615396353095,-0.7056382085908295,-0.3588311589227131
1499369094754,-0.5962615396353095,-0.7055161364156559,-0.3589532310978867
1499369094770,-0.5960173952849623,-0.7057602807660031,-0.36127260242618453
1499369094786,-0.596383611810483,-0.7044174868390938,-0.3610284580758374
1499369094802,-0.5969939726863509,-0.7051499198901352,-0.3613946746013581
1499369094818,-0.5971160448615245,-0.7060044251163502,-0.36127260242618453
1499369094834,-0.5982146944380866,-0.7069810025177388,-0.3600518806744488
1499369094850,-0.5995574883649959,-0.707469291218433,-0.36151674677653167
1499369094866,-0.5983367666132602,-0.7063706416418709,-0.3634699015793088
1499369094882,-0.5983367666132602,-0.7067368581673916,-0.3618829633020524
1499369094898,-0.5983367666132602,-0.7069810025177388,-0.36163881895170524
1499369094914,-0.598092622262913,-0.706614785992218,-0.3610284580758374
1499369094930,-0.5979705500877395,-0.7062485694666973,-0.35907530327306025
1499369094946,-0.595529106584268,-0.7061264972915238,-0.3596856641489281
1499369094962,-0.5967498283360038,-0.7061264972915238,-0.3596856641489281
1499369094978,-0.5982146944380866,-0.7035629816128788,-0.3631036850537881
1499369094994,-0.5985809109636073,-0.7027084763866638,-0.3589532310978867
1499369095010,-0.5971160448615245,-0.7060044251163502,-0.3626153963530938
1499369095026,-0.5961394674601359,-0.708323796444648,-0.36200503547722596
1499369095042,-0.5978484779125659,-0.7075913633936066,-0.3618829633020524
1499369095058,-0.5965056839856566,-0.7052719920653088,-0.3638361181048295
1499369095074,-0.5969939726863509,-0.7049057755397881,-0.35992980849927525
1499369095090,-0.5978484779125659,-0.7045395590142673,-0.35992980849927525
1499369095106,-0.5995574883649959,-0.7047837033646145,-0.3621271076523995
1499369095122,-0.5999237048905166,-0.7052719920653088,-0.35956359197375454
1499369095138,-0.602365148393988,-0.7071030746929123,-0.36127260242618453
1499369095154,-0.6010223544670787,-0.7077134355687802,-0.36627756160830094
1499369095170,-0.6001678492408637,-0.7078355077439538,-0.3627374685282674
1499369095186,-0.5994354161898223,-0.7078355077439538,-0.36334782940413524
1499369095202,-0.5967498283360038,-0.7057602807660031,-0.3631036850537881
1499369095219,-0.5936980239566645,-0.7024643320363166,-0.3639581902800031
1499369095235,-0.5947966735332266,-0.7023422598611431,-0.36115053025101096
1499369095251,-0.5945525291828795,-0.7011215381094074,-0.36151674677653167
1499369095267,-0.595529106584268,-0.7016098268101016,-0.3627374685282674
1499369095283,-0.5934538796063173,-0.7051499198901352,-0.36334782940413524
1499369095299,-0.5950408178835738,-0.7056382085908295,-0.3621271076523995
1499369095315,-0.5961394674601359,-0.7062485694666973,-0.3613946746013581
1499369095331,-0.5966277561608302,-0.7064927138170445,-0.36420233463035023
1499369095347,-0.5976043335622188,-0.7062485694666973,-0.3618829633020524
1499369095363,-0.5984588387884338,-0.7056382085908295,-0.3589532310978867
1499369095379,-0.598947127489128,-0.7050278477149616,-0.35907530327306025
1499369095395,-0.5999237048905166,-0.7056382085908295,-0.3610284580758374
1499369095411,-0.6005340657663845,-0.707469291218433,-0.36115053025101096
1499369095427,-0.599801632715343,-0.7057602807660031,-0.3627374685282674
1499369095443,-0.598092622262913,-0.7064927138170445,-0.3618829633020524
1499369095459,-0.5994354161898223,-0.7063706416418709,-0.36163881895170524
1499369095475,-0.5983367666132602,-0.7053940642404823,-0.3626153963530938
1499369095491,-0.5969939726863509,-0.7057602807660031,-0.36127260242618453
1499369095507,-0.5958953231097888,-0.7027084763866638,-0.36200503547722596
1499369095523,-0.5961394674601359,-0.7031967650873581,-0.36163881895170524
1499369095539,-0.5958953231097888,-0.7020981155107959,-0.3598077363241017
1499369095555,-0.5967498283360038,-0.7062485694666973,-0.36078431372549025
1499369095571,-0.5977264057373923,-0.7055161364156559,-0.3631036850537881
1499369095587,-0.5977264057373923,-0.7049057755397881,-0.3610284580758374
1499369095603,-0.5979705500877395,-0.7067368581673916,-0.36285954070344095
1499369095619,-0.5965056839856566,-0.7052719920653088,-0.3613946746013581
1499369095635,-0.5958953231097888,-0.7055161364156559,-0.36249332417792024
1499369095651,-0.5966277561608302,-0.706614785992218,-0.36127260242618453
1499369095667,-0.5962615396353095,-0.7055161364156559,-0.35858701457236597
1499369095683,-0.5961394674601359,-0.7057602807660031,-0.3600518806744488
1499369095699,-0.5977264057373923,-0.7041733424887466,-0.36285954070344095
1499369095715,-0.597238117036698,-0.7063706416418709,-0.35992980849927525
1499369095731,-0.5978484779125659,-0.7062485694666973,-0.3618829633020524
1499369095747,-0.5974822613870452,-0.7060044251163502,-0.3629816128786145
1499369095763,-0.5985809109636073,-0.7057602807660031,-0.3617608911268788
1499369095779,-0.5984588387884338,-0.7055161364156559,-0.36322575722896167
1499369095795,-0.5988250553139545,-0.7064927138170445,-0.3639581902800031
1499369095811,-0.5979705500877395,-0.7049057755397881,-0.36200503547722596
1499369095827,-0.5969939726863509,-0.7039291981383995,-0.3629816128786145
1499369095843,-0.5957732509346152,-0.7052719920653088,-0.36237125200274667
1499369095859,-0.5945525291828795,-0.7033188372625316,-0.36200503547722596
1499369095875,-0.5958953231097888,-0.7039291981383995,-0.36249332417792024
1499369095891,-0.5928435187304495,-0.7039291981383995,-0.36408026245517666
1499369095907,-0.5936980239566645,-0.7041733424887466,-0.3613946746013581
1499369095923,-0.5928435187304495,-0.7028305485618374,-0.35992980849927525
1499369095939,-0.5951628900587473,-0.7035629816128788,-0.3591973754482338
1499369095955,-0.596383611810483,-0.7042954146639202,-0.36163881895170524
1499369095971,-0.5974822613870452,-0.706614785992218,-0.36127260242618453
1499369095987,-0.5988250553139545,-0.7068589303425652,-0.3610284580758374
1499369096003,-0.5974822613870452,-0.7075913633936066,-0.3613946746013581
1499369096019,-0.5979705500877395,-0.7077134355687802,-0.3622491798275731
1499369096035,-0.5987029831387809,-0.7068589303425652,-0.36041809719996953
1499369096051,-0.598947127489128,-0.7053940642404823,-0.3627374685282674
1499369096067,-0.5984588387884338,-0.7057602807660031,-0.3618829633020524
1499369096083,-0.5991912718394752,-0.7078355077439538,-0.3629816128786145
1499369096099,-0.5982146944380866,-0.7063706416418709,-0.3627374685282674
1499369096115,-0.5973601892118716,-0.7058823529411766,-0.3610284580758374
1499369096131,-0.595529106584268,-0.7052719920653088,-0.3634699015793088
1499369096147,-0.5960173952849623,-0.7052719920653088,-0.36249332417792024
1499369096164,-0.5949187457084002,-0.7052719920653088,-0.3622491798275731
1499369096180,-0.5947966735332266,-0.7029526207370109,-0.36115053025101096
1499369096196,-0.5941863126573588,-0.7050278477149616,-0.3591973754482338
1499369096212,-0.5945525291828795,-0.7062485694666973,-0.3609063859006638
1499369096228,-0.5968719005111773,-0.7085679407949952,-0.36285954070344095
1499369096244,-0.5961394674601359,-0.7075913633936066,-0.36408026245517666
1499369096260,-0.5961394674601359,-0.7056382085908295,-0.36029602502479596
1499369096276,-0.5965056839856566,-0.7052719920653088,-0.36334782940413524
1499369096292,-0.5956511787594416,-0.7049057755397881,-0.36249332417792024
1499369096308,-0.5969939726863509,-0.7053940642404823,-0.3600518806744488
1499369096324,-0.5968719005111773,-0.7060044251163502,-0.3613946746013581
1499369096340,-0.5962615396353095,-0.7082017242694745,-0.3622491798275731
1499369096356,-0.5977264057373923,-0.7084458686198216,-0.36151674677653167
1499369096372,-0.5985809109636073,-0.7077134355687802,-0.3655451285572595
1499369096388,-0.5978484779125659,-0.7045395590142673,-0.3600518806744488
1499369096404,-0.5971160448615245,-0.7041733424887466,-0.36078431372549025
1499369096420,-0.5979705500877395,-0.7041733424887466,-0.36200503547722596
1499369096436,-0.598092622262913,-0.7067368581673916,-0.3644464789806974
1499369096452,-0.5982146944380866,-0.7079575799191273,-0.36115053025101096
1499369096468,-0.5971160448615245,-0.7089341573205159,-0.36237125200274667
1499369096484,-0.5977264057373923,-0.7077134355687802,-0.36041809719996953
1499369096500,-0.595529106584268,-0.7060044251163502,-0.36078431372549025
1499369096516,-0.5940642404821852,-0.7038071259632259,-0.35822079804684526
1499369096532,-0.5932097352559702,-0.7034409094377052,-0.36078431372549025
1499369096548,-0.5952849622339209,-0.7040512703135731,-0.35834287022201883
1499369096564,-0.5944304570077059,-0.7042954146639202,-0.35956359197375454
1499369096580,-0.5961394674601359,-0.7063706416418709,-0.3643244068055238
1499369096596,-0.5958953231097888,-0.707469291218433,-0.36505683985656523
1499369096612,-0.5976043335622188,-0.7051499198901352,-0.36163881895170524
1499369096628,-0.5976043335622188,-0.7068589303425652,-0.36371404592965595
1499369096644,-0.5982146944380866,-0.7056382085908295,-0.3618829633020524
1499369096660,-0.5969939726863509,-0.7044174868390938,-0.36115053025101096
1499369096676,-0.5971160448615245,-0.706614785992218,-0.36078431372549025
1499369096692,-0.5977264057373923,-0.7078355077439538,-0.36322575722896167
1499369096708,-0.5979705500877395,-0.7086900129701688,-0.36664377813382165
1499369096724,-0.5988250553139545,-0.7082017242694745,-0.3656672007324331
1499369096740,-0.5976043335622188,-0.7078355077439538,-0.36127260242618453
1499369096756,-0.5967498283360038,-0.7088120851453423,-0.3600518806744488
1499369096772,-0.5958953231097888,-0.7067368581673916,-0.3601739528496224
1499369096788,-0.5961394674601359,-0.7033188372625316,-0.3613946746013581
1499369096804,-0.5961394674601359,-0.7031967650873581,-0.3626153963530938
1499369096820,-0.5960173952849623,-0.706614785992218,-0.3638361181048295
1499369096836,-0.5954070344090945,-0.7085679407949952,-0.3694514381628138
1499369096852,-0.5946746013580531,-0.7105210955977723,-0.3696955825131609
1499369096868,-0.5940642404821852,-0.7099107347219045,-0.3736018921187152
1499369096884,-0.595529106584268,-0.7123521782253759,-0.37592126344701304
1499369096900,-0.5919890135042345,-0.7155260547798887,-0.3772640573739223
1499369096916,-0.5908903639276724,-0.7161364156557566,-0.3740901808194095
1499369096932,-0.5888151369497217,-0.7129625391012437,-0.3720149538414588
1499369096948,-0.5868619821469445,-0.7052719920653088,-0.37885099565117875
1499369096964,-0.5874723430228124,-0.706614785992218,-0.3803158617532616
1499369096980,-0.5871061264972917,-0.7072251468680859,-0.39362172884718083
1499369096996,-0.5907682917524988,-0.7250476844434273,-0.3941100175478751
1499369097012,-0.5925993743801024,-0.7300526436255437,-0.39606317235065225
1499369097028,-0.595529106584268,-0.729686427100023,-0.3906919966430151
1499369097044,-0.5938200961318381,-0.721995880064088,-0.3883726253147173
1499369097061,-0.600656137941558,-0.7119859616998552,-0.384466315709163
1499369097077,-0.5958953231097888,-0.710032806897078,-0.3786068513008316
1499369097093,-0.5888151369497217,-0.7051499198901352,-0.3591973754482338
1499369097109,-0.5911345082780195,-0.7169909208819716,-0.3571221484702831
1499369097125,-0.5971160448615245,-0.722850385290303,-0.3627374685282674
1499369097141,-0.5993133440146488,-0.7176012817578394,-0.36151674677653167
1499369097157,-0.596383611810483,-0.710032806897078,-0.35077439536125743
1499369097173,-0.5896696421759366,-0.7029526207370109,-0.3417410543984132
1499369097189,-0.5885709925993745,-0.7006332494087131,-0.3436942092011903
1499369097205,-0.5794155794613567,-0.6913557640955217,-0.34857709620813315
1499369097221,-0.5753871976806288,-0.6915999084458688,-0.35480277714198527
1499369097237,-0.5741664759288931,-0.6898908979934388,-0.36334782940413524
1499369097253,-0.5659876401922639,-0.6864728770885784,-0.3696955825131609
1499369097269,-0.564522774090181,-0.687571526665141,-0.37335774776836805
1499369097285,-0.5608606088349735,-0.6890363927672238,-0.3753109025711452
1499369097301,-0.5611047531853206,-0.6939192797741667,-0.3798275730525673
1499369097317,-0.5622034027618827,-0.6928206301976045,-0.37848477912565803
1499369097333,-0.5629358358129246,-0.6946517128252081,-0.3820248722056916
1499369097349,-0.5646448462653546,-0.6992904554818038,-0.39056992446784156
1499369097365,-0.5689173723964296,-0.7039291981383995,-0.3966735332265201
1499369097381,-0.5731898985275046,-0.7041733424887466,-0.3966735332265201
1499369097397,-0.5758754863813231,-0.7031967650873581,-0.3899595635919737
1499369097413,-0.576485847257191,-0.7033188372625316,-0.3816586556801709
1499369097429,-0.5768520637827117,-0.7011215381094074,-0.3772640573739223
1499369097445,-0.578194857709621,-0.7025864042114902,-0.37665369649805447
1499369097461,-0.5769741359578853,-0.7052719920653088,-0.3770199130235752
1499369097477,-0.5762417029068438,-0.7073472190432595,-0.37714198519874875
1499369097493,-0.5733119707026781,-0.7093003738460366,-0.37335774776836805
1499369097509,-0.573067826352331,-0.708323796444648,-0.3710383764400702
1499369097525,-0.5759975585564967,-0.7069810025177388,-0.3705500877393759
1499369097541,-0.5788052185854888,-0.7067368581673916,-0.3720149538414588
1499369097557,-0.5830777447165638,-0.7088120851453423,-0.3722590981918059
1499369097573,-0.5883268482490274,-0.7121080338750287,-0.37677576867322804
1499369097589,-0.5913786526283666,-0.7178454261081866,-0.3798275730525673
1499369097605,-0.6059052414740216,-0.7345693141069658,-0.3900816357671473
1499369097621,-0.6173800259403373,-0.7488517586022736,-0.38312352178225373
1499369097637,-0.6171358815899901,-0.7492179751277943,-0.35907530327306025
1499369097653,-0.6089570458533609,-0.7433585107194629,-0.34137483787289247
1499369097669,-0.6024872205691616,-0.7350576028076601,-0.34308384832532246
1499369097685,-0.5943083848325323,-0.7221179522392616,-0.3424734874494546
1499369097701,-0.586739909971771,-0.7019760433356224,-0.3369802395666439
1499369097717,-0.5788052185854888,-0.6898908979934388,-0.32843518730449395
1499369097733,-0.5720912489509424,-0.6764629587243456,-0.3319752803845275
1499369097749,-0.5745326924544139,-0.6779278248264284,-0.34699015793087673
1499369097765,-0.5744106202792403,-0.6836652170595863,-0.35785458152132454
1499369097781,-0.5789272907606624,-0.689280537117571,-0.3677424277103838
1499369097797,-0.5834439612420845,-0.6929427023727781,-0.3677424277103838
1499369097813,-0.5888151369497217,-0.696116578927291,-0.36798657206073093
1499369097829,-0.5933318074311438,-0.6999008163576717,-0.3655451285572595
1499369097845,-0.5924773022049288,-0.696971084153506,-0.35651178759441526
1499369097861,-0.5987029831387809,-0.7009994659342338,-0.3512626840619517
1499369097877,-0.6078583962767987,-0.6988021667811095,-0.34821087968261244
1499369097893,-0.6105439841306173,-0.697825589379721,-0.3429617761501489
1499369097909,-0.6189669642175937,-0.7046616311894409,-0.33771267261768534
1499369097925,-0.6187228198672465,-0.7055161364156559,-0.33307392996108964
1499369097941,-0.6247043564507515,-0.7145494773785002,-0.33392843518730464
1499369097957,-0.6226291294728008,-0.7154039826047152,-0.3285572594796675
1499369097973,-0.6270237277790494,-0.727122911421378,-0.32672617685206395
1499369097990,-0.6217746242465858,-0.726268406195163,-0.3223315785458154
1499369098006,-0.621164263370718,-0.7265125505455101,-0.32550545510032824
1499369098022,-0.6256809338521401,-0.7298084992751965,-0.3226977950713361
1499369098038,-0.6258030060273136,-0.7260242618448158,-0.32037842374303827
1499369098054,-0.6276340886549172,-0.728831921873808,-0.32623788815136967
1499369098070,-0.63422598611429,-0.7241931792172123,-0.3235523002975511
1499369098086,-0.6352025635156786,-0.7216296635385673,-0.31964599069199684
1499369098102,-0.6380102235446707,-0.7166247043564509,-0.32416266117341896
1499369098118,-0.6369115739681086,-0.717723353933013,-0.3211108567940797
1499369098134,-0.6383764400701915,-0.7156481269550623,-0.3235523002975511
1499369098150,-0.6382543678950179,-0.7155260547798887,-0.32465094987411325
1499369098166,-0.6395971618219272,-0.7167467765316244,-0.32416266117341896
1499369098182,-0.6348363469901579,-0.7133287556267645,-0.3248950942244604
1499369098198,-0.631662470435645,-0.7111314564736402,-0.31842526894026113
1499369098214,-0.6264133669031815,-0.7052719920653088,-0.31537346456092186
1499369098230,-0.6250705729762722,-0.7049057755397881,-0.3169604028381783
1499369098246,-0.6262912947280079,-0.7056382085908295,-0.3285572594796675
1499369098262,-0.6271457999542229,-0.7056382085908295,-0.33258564126039536
1499369098278,-0.6234836346990158,-0.7042954146639202,-0.33087663080796537
1499369098294,-0.618600747692073,-0.6983138780804152,-0.3291676203555354
1499369098310,-0.6153047989623865,-0.695262073701076,-0.3324635690852218
1499369098326,-0.6140840772106508,-0.6897688258182653,-0.3352712291142139
1499369098342,-0.613473716334783,-0.6870832379644463,-0.3382009613183796
1499369098358,-0.6106660563057908,-0.6864728770885784,-0.3386892500190739
1499369098374,-0.6110322728313116,-0.6856183718623634,-0.34052033264667747
1499369098390,-0.6102998397802701,-0.6839093614099334,-0.3403982604715039
1499369098406,-0.6085908293278401,-0.6830548561837184,-0.3399099717708096
1499369098422,-0.6065156023498894,-0.6825665674830241,-0.34052033264667747
1499369098438,-0.6070038910505837,-0.6826886396581977,-0.34271763179980175
1499369098454,-0.6062714579995423,-0.6851300831616691,-0.3408865491721982
1499369098470,-0.6079804684519723,-0.6872053101396198,-0.3421072709239339
1499369098486,-0.610910200656138,-0.6869611657892727,-0.3373464560921646
1499369098502,-0.6123750667582208,-0.6887922484168767,-0.3344167238879989
1499369098518,-0.6183566033417258,-0.6915999084458688,-0.3378347447928589
1499369098534,-0.6258030060273136,-0.6958724345769438,-0.3352712291142139
1499369098550,-0.6282444495307851,-0.6985580224307624,-0.3335622186617839
1499369098566,-0.63080796520943,-0.7011215381094074,-0.32806897077897323
1499369098582,-0.631662470435645,-0.7045395590142673,-0.3297779812314032
1499369098598,-0.6337376974135958,-0.7106431677729459,-0.3277027542534525
1499369098614,-0.6347142748149843,-0.7145494773785002,-0.32843518730449395
1499369098630,-0.6375219348439765,-0.7161364156557566,-0.3297779812314032
1499369098646,-0.6370336461432822,-0.7161364156557566,-0.32623788815136967
1499369098662,-0.6361791409170672,-0.7150377660791944,-0.3252613107499811
1499369098678,-0.6331273365377279,-0.7113756008239873,-0.3240405889982454
1499369098694,-0.6327611200122072,-0.706614785992218,-0.32343022812237754
1499369098710,-0.6303196765087358,-0.7034409094377052,-0.32379644464789825
1499369098726,-0.6288548104066529,-0.7006332494087131,-0.3257495994506754
1499369098742,-0.6287327382314793,-0.6946517128252081,-0.3286793316548411
1499369098758,-0.6250705729762722,-0.6922102693217367,-0.32709239337758467
1499369098774,-0.6244602121004044,-0.6894026092927446,-0.3290455481803618
1499369098790,-0.6237277790493629,-0.6898908979934388,-0.33099870298313894
1499369098806,-0.6222629129472801,-0.6878156710154881,-0.3302662699320975
1499369098822,-0.621164263370718,-0.6886701762417031,-0.33099870298313894
1499369098838,-0.6215304798962387,-0.6898908979934388,-0.3323414969100482
1499369098854,-0.6226291294728008,-0.6928206301976045,-0.3311207751583125
1499369098870,-0.6253147173266194,-0.6947737850003817,-0.3302662699320975
1499369098886,-0.6260471503776608,-0.6959945067521174,-0.3294117647058825
1499369098902,-0.6283665217059586,-0.6963607232776381,-0.3303883421072711
1499369098918,-0.6299534599832151,-0.6958724345769438,-0.32428473334859254
1499369098935,-0.6310521095597772,-0.696971084153506,-0.3256275272755018
1499369098951,-0.6317845426108186,-0.6991683833066302,-0.3269703212024111
1499369098967,-0.6306858930342565,-0.6996566720073245,-0.32758068207827895
1499369098983,-0.6300755321583886,-0.6999008163576717,-0.3261158159761961
1499369098999,-0.6298313878080415,-0.6995345998321509,-0.3307545586327918
1499369099015,-0.6287327382314793,-0.6984359502555888,-0.33344014648661036
1499369099031,-0.6282444495307851,-0.6973373006790267,-0.33002212558175037
1499369099047,-0.6275120164797436,-0.6956282902265967,-0.32672617685206395
1499369099063,-0.6278782330052644,-0.6940413519493402,-0.3256275272755018
1499369099079,-0.6283665217059586,-0.6956282902265967,-0.32550545510032824
1499369099095,-0.6314183260852979,-0.6959945067521174,-0.3269703212024111
1499369099111,-0.6305638208590829,-0.6972152285038531,-0.3302662699320975
1499369099127,-0.6293430991073472,-0.6988021667811095,-0.3278248264286261
1499369099143,-0.6290989547570001,-0.7005111772335395,-0.33014419775692394
1499369099159,-0.6292210269321736,-0.7014877546349281,-0.3295338368810561
1499369099175,-0.6280003051804379,-0.7012436102845809,-0.3299000534065768
1499369099191,-0.6273899443045701,-0.6995345998321509,-0.32965590905622966
1499369099207,-0.6280003051804379,-0.6955062180514231,-0.32806897077897323
1499369099223,-0.6290989547570001,-0.6912336919203481,-0.3320973525597011
1499369099239,-0.6280003051804379,-0.6934309910734724,-0.3323414969100482
1499369099255,-0.6261692225528344,-0.6940413519493402,-0.3353933012893875
1499369099271,-0.6255588616769665,-0.6939192797741667,-0.3336842908369575
1499369099287,-0.6258030060273136,-0.6930647745479517,-0.3341725795376518
1499369099303,-0.6260471503776608,-0.6922102693217367,-0.33856717784390034
1499369099319,-0.6243381399252308,-0.6933089188982988,-0.33759060044251177
1499369099335,-0.6231174181734951,-0.6950179293507288,-0.33173113603418036
1499369099351,-0.6231174181734951,-0.6920881971465631,-0.3283131151293204
1499369099367,-0.6248264286259251,-0.6924544136720838,-0.3277027542534525
1499369099383,-0.6267795834287022,-0.6917219806210424,-0.3302662699320975
1499369099399,-0.6248264286259251,-0.6939192797741667,-0.33307392996108964
1499369099415,-0.6245822842755779,-0.696116578927291,-0.33014419775692394
1499369099431,-0.6259250782024872,-0.6963607232776381,-0.33221942473487465
1499369099447,-0.6284885938811322,-0.6991683833066302,-0.3333180743114368
1499369099463,-0.6276340886549172,-0.6997787441824981,-0.33221942473487465
1499369099479,-0.6275120164797436,-0.696971084153506,-0.33270771343556893
1499369099495,-0.6270237277790494,-0.6975814450293738,-0.33002212558175037
1499369099511,-0.6281223773556115,-0.6967269398031588,-0.3306324864576182
1499369099527,-0.6276340886549172,-0.6958724345769438,-0.3323414969100482
1499369099543,-0.6266575112535286,-0.6951400015259024,-0.3324635690852218
1499369099559,-0.6265354390783551,-0.6953841458762495,-0.3319752803845275
1499369099575,-0.6261692225528344,-0.6958724345769438,-0.3312428473334861
1499369099591,-0.6264133669031815,-0.6945296406500345,-0.33295185778591607
1499369099607,-0.6245822842755779,-0.695262073701076,-0.3340505073624782
1499369099623,-0.6245822842755779,-0.695262073701076,-0.3323414969100482
1499369099639,-0.6269016556038758,-0.6940413519493402,-0.3320973525597011
1499369099655,-0.6269016556038758,-0.695262073701076,-0.33478294041351964
1499369099671,-0.6275120164797436,-0.696116578927291,-0.33270771343556893
1499369099687,-0.6261692225528344,-0.6955062180514231,-0.3314869916838332
1499369099703,-0.6266575112535286,-0.6972152285038531,-0.3299000534065768
1499369099719,-0.6258030060273136,-0.6970931563286795,-0.33295185778591607
1499369099735,-0.6254367895017929,-0.6950179293507288,-0.33514915693904035
1499369099751,-0.6253147173266194,-0.6937972075989931,-0.33478294041351964
1499369099767,-0.6276340886549172,-0.6922102693217367,-0.33514915693904035
1499369099783,-0.6276340886549172,-0.6934309910734724,-0.3320973525597011
1499369099799,-0.6284885938811322,-0.6968490119783324,-0.3311207751583125
1499369099815,-0.6282444495307851,-0.6990463111314567,-0.33563744563973463
1499369099832,-0.6265354390783551,-0.6975814450293738,-0.3324635690852218
1499369099848,-0.6260471503776608,-0.6975814450293738,-0.33380636301213107
1499369099864,-0.6262912947280079,-0.6972152285038531,-0.3314869916838332
1499369099880,-0.6272678721293965,-0.6950179293507288,-0.3336842908369575
1499369099896,-0.6264133669031815,-0.691844052796216,-0.33002212558175037
1499369099912,-0.6280003051804379,-0.6931868467231252,-0.3295338368810561
1499369099928,-0.6266575112535286,-0.6923323414969103,-0.32721446555275824
1499369099944,-0.6266575112535286,-0.6937972075989931,-0.3291676203555354
1499369099960,-0.6267795834287022,-0.6963607232776381,-0.3319752803845275
1499369099976,-0.6261692225528344,-0.6991683833066302,-0.32928969253070894
1499369099992,-0.6242160677500572,-0.6981918059052417,-0.33136491950865965
1499369100008,-0.6251926451514458,-0.6970931563286795,-0.3253833829251547
1499369100024,-0.6234836346990158,-0.6955062180514231,-0.32880140383001466
1499369100040,-0.6195773250934615,-0.6940413519493402,-0.3264820325017168
1499369100056,-0.6176241702906844,-0.6911116197451745,-0.3295338368810561
1499369100072,-0.6148165102616923,-0.6962386511024645,-0.3285572594796675
1499369100088,-0.6193331807431144,-0.6974593728542002,-0.3264820325017168
1499369100104,-0.6272678721293965,-0.7012436102845809,-0.3226977950713361
1499369100120,-0.6229953459983215,-0.695262073701076,-0.3197680628671704
1499369100136,-0.6314183260852979,-0.6955062180514231,-0.3306324864576182
1499369100152,-0.6356908522163729,-0.6966048676279852,-0.3357595178149082
1499369100168,-0.6383764400701915,-0.7055161364156559,-0.34137483787289247
1499369100184,-0.6438696879530021,-0.7116197451743345,-0.346623941405356
1499369100200,-0.6370336461432822,-0.719432364385443,-0.34027618829633033
1499369100216,-0.6322728313115129,-0.7323720149538415,-0.34699015793087673
1499369100232,-0.64448004882887,-0.7356679636835279,-0.34943160143434815
1499369100248,-0.6514381628137635,-0.7348134584573129,-0.3593194476234074
1499369100264,-0.63593499656672,-0.7044174868390938,-0.3471122301060503
1499369100280,-0.6321507591363393,-0.6915999084458688,-0.33929961089494176
1499369100296,-0.6286106660563058,-0.6826886396581977,-0.33942168307011533
1499369100312,-0.6290989547570001,-0.6747539482719156,-0.3438162813763639
1499369100328,-0.6259250782024872,-0.6685282673380635,-0.3390554665445946
1499369100344,-0.6232394903486687,-0.6664530403601128,-0.33771267261768534
1499369100360,-0.6205539024948501,-0.6653543907835506,-0.33429465171282535
1499369100376,-0.6166475928892958,-0.6696269169146256,-0.3391775387197682
1499369100392,-0.6070038910505837,-0.6764629587243456,-0.3357595178149082
1499369100408,-0.6093232623788816,-0.6830548561837184,-0.33771267261768534
1499369100424,-0.6153047989623865,-0.6887922484168767,-0.33771267261768534
1499369100440,-0.6179903868162051,-0.6908674753948274,-0.3297779812314032
1499369100456,-0.6150606546120394,-0.6951400015259024,-0.3151293202105747
1499369100472,-0.6161593041886015,-0.6979476615548945,-0.30975814450293715
1499369100488,-0.6201876859693294,-0.6988021667811095,-0.30170138094148147
1499369100504,-0.6218966964217594,-0.7009994659342338,-0.29303425650415793
1499369100520,-0.6243381399252308,-0.7039291981383995,-0.2852216372930494
1499369100536,-0.6254367895017929,-0.7055161364156559,-0.2852216372930494
1499369100552,-0.6295872434576943,-0.7038071259632259,-0.2796063172350651
1499369100568,-0.6326390478370336,-0.7052719920653088,-0.28241397726405726
1499369100584,-0.633371480888075,-0.7029526207370109,-0.2830243381399251
1499369100600,-0.6326390478370336,-0.7005111772335395,-0.28326848249027226
1499369100616,-0.63422598611429,-0.6983138780804152,-0.2850995651178758
1499369100632,-0.6386205844205386,-0.6941634241245138,-0.2914473182269015
1499369100648,-0.6455786984054321,-0.6941634241245138,-0.29633020523384435
1499369100664,-0.6497291523613336,-0.691844052796216,-0.2964522774090179
1499369100680,-0.64960708018616,-0.6908674753948274,-0.2981612878614479
1499369100696,-0.653879606317235,-0.693553063248646,-0.29498741130693507
1499369100712,-0.6548561837186235,-0.6959945067521174,-0.2897383077744715
1499369100728,-0.65644312199588,-0.6983138780804152,-0.2830243381399251
1499369100744,-0.6587624933241778,-0.6986800946059359,-0.2763103685053787
1499369100761,-0.6603494316014342,-0.7013656824597545,-0.27582207980468443
1499369100777,-0.6609597924773021,-0.7022201876859695,-0.2714274814984359
1499369100793,-0.6575417715724421,-0.7068589303425652,-0.26312657358663305
1499369100809,-0.6593728542000457,-0.707469291218433,-0.2587319752803845
1499369100825,-0.6614480811779964,-0.7058823529411766,-0.26153963530937663
1499369100841,-0.6590066376745249,-0.7071030746929123,-0.2595864805065995
1499369100857,-0.653879606317235,-0.7045395590142673,-0.2590981918059052
1499369100873,-0.6485084306095978,-0.7029526207370109,-0.2650797283894102
1499369100889,-0.6450904097047379,-0.6991683833066302,-0.27203784237430373
1499369100905,-0.6430151827267871,-0.6966048676279852,-0.27862973983367656
1499369100921,-0.6428931105516136,-0.6922102693217367,-0.28448920424200796
1499369100937,-0.6450904097047379,-0.6913557640955217,-0.2902265964751658
1499369100953,-0.647043564507515,-0.6885481040665296,-0.29132524605172794
1499369100969,-0.6455786984054321,-0.6915999084458688,-0.29462119478141435
1499369100985,-0.6497291523613336,-0.6925764858472574,-0.30084687571526647
1499369101001,-0.6497291523613336,-0.6956282902265967,-0.3029221026932172
1499369101017,-0.6541237506675821,-0.6942854962996874,-0.30926985580224287
1499369101033,-0.6552224002441442,-0.6913557640955217,-0.31012436102845786
1499369101049,-0.6508278019378957,-0.6851300831616691,-0.3152513923857483
1499369101065,-0.64960708018616,-0.6818341344319827,-0.3148851758602276
1499369101081,-0.6497291523613336,-0.6785381857022963,-0.31451895933470686
1499369101097,-0.647043564507515,-0.6812237735561149,-0.3117112993057143
1499369101113,-0.6476539253833828,-0.6828107118333713,-0.30719462882429216
1499369101129,-0.6493629358358128,-0.6868390936140991,-0.30634012359807716
1499369101145,-0.6507057297627221,-0.6876935988403146,-0.30975814450293715
1499369101161,-0.6536354619668878,-0.6920881971465631,-0.31464103150988043
1499369101177,-0.6526588845654993,-0.6950179293507288,-0.3140306706340126
1499369101193,-0.6529030289158464,-0.6956282902265967,-0.30609597924773
1499369101209,-0.65644312199588,-0.693553063248646,-0.3012130922407872
1499369101225,-0.6585183489738307,-0.6900129701686124,-0.3020675974670022
1499369101241,-0.6566872663462271,-0.6880598153658353,-0.3024338139925229
1499369101257,-0.6519264515144578,-0.6873273823147934,-0.2993820096131836
1499369101273,-0.6498512245365071,-0.684031433585107,-0.2974288548104065
1499369101289,-0.6461890592813,-0.6774395361257342,-0.3012130922407872
1499369101305,-0.643625543602655,-0.6730449378194856,-0.3023117418173493
1499369101321,-0.6443579766536964,-0.6726787212939649,-0.3012130922407872
1499369101337,-0.6467994201571678,-0.6710917830167085,-0.3028000305180436
1499369101353,-0.647043564507515,-0.6701152056153199,-0.3058518348973829
1499369101369,-0.6483863584344243,-0.6732890821698327,-0.3014572365911343
1499369101385,-0.6483863584344243,-0.6752422369726099,-0.3003585870145722
1499369101401,-0.6525368123903257,-0.6770733196002134,-0.2953536278324558
1499369101417,-0.6602273594262607,-0.6773174639505606,-0.3002365148393986
1499369101433,-0.6655985351338978,-0.6807354848554206,-0.3003585870145722
1499369101449,-0.6668192568856335,-0.6853742275120163,-0.2960860608834972
1499369101465,-0.6607156481269549,-0.6890363927672238,-0.29303425650415793
1499369101481,-0.6582742046234835,-0.6919661249713895,-0.2905928130006865
1499369101497,-0.6566872663462271,-0.691844052796216,-0.2888838025482565
1499369101513,-0.6577859159227892,-0.690989547570001,-0.29034866865033937
1499369101529,-0.6615701533531699,-0.6895246814679181,-0.2938887617303729
1499369101545,-0.6616922255283435,-0.6845197222858013,-0.2926680399786372
1499369101561,-0.6605935759517814,-0.6828107118333713,-0.29376668955519936
1499369101577,-0.6603494316014342,-0.6812237735561149,-0.29596398870832363
1499369101593,-0.6616922255283435,-0.6759746700236513,-0.2990157930876629
1499369101609,-0.6634012359807735,-0.6749980926222627,-0.2976729991607536
1499369101625,-0.6660868238345921,-0.6730449378194856,-0.30255588616769646
1499369101641,-0.6679179064621956,-0.6745098039215685,-0.3057297627222093
1499369101657,-0.6687724116884106,-0.6758525978484777,-0.305241474021515
1499369101673,-0.6702372777904935,-0.6800030518043791,-0.30438696879530003
1499369101689,-0.6701152056153199,-0.6813458457312884,-0.30475318532082074
1499369101706,-0.6704814221408406,-0.6829327840085448,-0.30170138094148147
1499369101722,-0.6680399786373692,-0.6851300831616691,-0.29791714351110077
1499369101738,-0.6673075455863278,-0.6869611657892727,-0.3010910200656136
1499369101754,-0.6673075455863278,-0.6843976501106277,-0.30011444266422505
1499369101770,-0.6654764629587242,-0.6819562066071563,-0.3019455252918286
1499369101786,-0.6646219577325092,-0.6813458457312884,-0.30133516441596075
1499369101802,-0.6654764629587242,-0.6775616083009077,-0.30170138094148147
1499369101818,-0.6653543907835506,-0.6767071030746927,-0.30048065918974576
1499369101834,-0.666941329060807,-0.6749980926222627,-0.30084687571526647
1499369101850,-0.6675516899366749,-0.676340886549172,-0.3057297627222093
1499369101866,-0.6681620508125428,-0.6762188143739984,-0.3015793087663079
1499369101882,-0.6666971847104599,-0.6751201647974363,-0.30719462882429216
1499369101898,-0.6648661020828563,-0.6762188143739984,-0.3058518348973829
1499369101914,-0.6638895246814678,-0.6724345769436177,-0.3053635461966886
1499369101930,-0.6637674525062942,-0.671213855191882,-0.30597390707255645
1499369101946,-0.6640115968566414,-0.6724345769436177,-0.3065842679484243
1499369101962,-0.6618142977035171,-0.6728007934691385,-0.30511940184634145
1499369101978,-0.6626688029297321,-0.6745098039215685,-0.305241474021515
1499369101994,-0.6635233081559471,-0.6748760204470892,-0.30475318532082074
1499369102010,-0.6634012359807735,-0.6734111543450063,-0.30646219577325073
1499369102026,-0.6616922255283435,-0.6736552986953535,-0.30682841229877145
1499369102042,-0.6616922255283435,-0.6724345769436177,-0.30218966964217575
1499369102058,-0.6609597924773021,-0.6698710612649728,-0.30133516441596075
1499369102074,-0.6599832150759135,-0.6697489890897992,-0.3023117418173493
1499369102090,-0.6607156481269549,-0.6692607003891049,-0.2986495765621422
1499369102106,-0.6607156481269549,-0.6702372777904935,-0.30133516441596075
1499369102122,-0.6638895246814678,-0.6725566491187913,-0.3028000305180436
1499369102138,-0.6662088960097656,-0.6741435873960477,-0.3065842679484243
1499369102154,-0.669504844739452,-0.6756084534981306,-0.30804913405050716
1499369102170,-0.6699931334401463,-0.6796368352788584,-0.30890363927672215
1499369102186,-0.6736552986953535,-0.681467917906462,-0.3067063401235979
1499369102202,-0.673777370870527,-0.6825665674830241,-0.305241474021515
1499369102218,-0.6723125047684442,-0.6828107118333713,-0.3049973296711679
1499369102234,-0.6732890821698327,-0.6804913405050734,-0.3087815671015486
1499369102250,-0.672922865644312,-0.6800030518043791,-0.3075608453498129
1499369102266,-0.6701152056153199,-0.6786602578774699,-0.30475318532082074
1499369102282,-0.6679179064621956,-0.6781719691767756,-0.2991378652628365
1499369102298,-0.6646219577325092,-0.6758525978484777,-0.29889372091248934
1499369102314,-0.6625467307545585,-0.673777370870527,-0.2952315556572822
1499369102330,-0.6630350194552528,-0.6715800717174027,-0.29425497825589364
1499369102346,-0.6625467307545585,-0.6706034943160142,-0.29584191653315006
1499369102362,-0.6612039368276492,-0.6706034943160142,-0.2985275043869686
1499369102378,-0.6598611429007399,-0.6735332265201799,-0.2962081330586708
1499369102394,-0.6587624933241778,-0.6752422369726099,-0.2985275043869686
1499369102410,-0.6621805142290378,-0.6751201647974363,-0.29791714351110077
1499369102426,-0.6640115968566414,-0.6769512474250399,-0.30011444266422505
1499369102442,-0.6697489890897992,-0.6815899900816356,-0.29925993743801005
1499369102458,-0.6717021438925763,-0.6841535057602806,-0.2981612878614479
1499369102474,-0.6709697108415349,-0.6859845883878841,-0.2915693904020751
1499369102490,-0.6658426794842449,-0.6852521553368427,-0.2840009155413137
1499369102506,-0.6634012359807735,-0.6819562066071563,-0.281071183337148
1499369102522,-0.6625467307545585,-0.6773174639505606,-0.2813153276874951
1499369102538,-0.6594949263752192,-0.6724345769436177,-0.28461127641718154
1499369102554,-0.6599832150759135,-0.6724345769436177,-0.28998245212481866
1499369102570,-0.6619363698786906,-0.6743877317463949,-0.2932784008545051
1499369102586,-0.6592507820248721,-0.6767071030746927,-0.2977950713359272
1499369102603,-0.6592507820248721,-0.6782940413519492,-0.2974288548104065
1499369102619,-0.6588845654993514,-0.6773174639505606,-0.30182345311665504
1499369102635,-0.6571755550469214,-0.6759746700236513,-0.30426489662012646
1499369102651,-0.6615701533531699,-0.6728007934691385,-0.3036545357442586
1499369102667,-0.6614480811779964,-0.6709697108415349,-0.30096894789044004
1499369102683,-0.6587624933241778,-0.6725566491187913,-0.29925993743801005
1499369102699,-0.6593728542000457,-0.6748760204470892,-0.29877164873731576
1499369102715,-0.6598611429007399,-0.6786602578774699,-0.2957198443579765
1499369102731,-0.6625467307545585,-0.6801251239795527,-0.2948653391317615
1499369102747,-0.6649881742580299,-0.6822003509575034,-0.29584191653315006
1499369102763,-0.6663309681849392,-0.6868390936140991,-0.29974822613870433
1499369102779,-0.6668192568856335,-0.6853742275120163,-0.30048065918974576
1499369102795,-0.6652323186083771,-0.6837872892347598,-0.29547570000762935
1499369102811,-0.6626688029297321,-0.6807354848554206,-0.2924238956282901
1499369102827,-0.6632791638055999,-0.6756084534981306,-0.29132524605172794
1499369102843,-0.6637674525062942,-0.6747539482719156,-0.2947432669565879
1499369102859,-0.6621805142290378,-0.6758525978484777,-0.2947432669565879
1499369102875,-0.6607156481269549,-0.6752422369726099,-0.2957198443579765
1499369102891,-0.6602273594262607,-0.6774395361257342,-0.2976729991607536
1499369102907,-0.6591287098496985,-0.6774395361257342,-0.29755092698558006
1499369102923,-0.6604715037766078,-0.6760967421988249,-0.2981612878614479
1499369102939,-0.6596169985503928,-0.6768291752498663,-0.2977950713359272
1499369102955,-0.6587624933241778,-0.6762188143739984,-0.29633020523384435
1499369102971,-0.6598611429007399,-0.6762188143739984,-0.2947432669565879
1499369102987,-0.6583962767986571,-0.678049897001602,-0.2940108339055465
1499369103003,-0.6607156481269549,-0.6781719691767756,-0.2962081330586708
1499369103019,-0.6621805142290378,-0.6802471961547263,-0.2957198443579765
1499369103035,-0.6635233081559471,-0.6809796292057677,-0.29462119478141435
1499369103051,-0.6662088960097656,-0.6809796292057677,-0.29425497825589364
1499369103067,-0.6652323186083771,-0.6824444953078506,-0.2952315556572822
1499369103083,-0.6643778133821621,-0.6801251239795527,-0.2923018234531165
1499369103099,-0.6648661020828563,-0.6811017013809413,-0.2948653391317615
1499369103115,-0.6648661020828563,-0.6791485465781641,-0.2919356069275958
1499369103131,-0.6652323186083771,-0.6807354848554206,-0.29376668955519936
1499369103147,-0.6651102464332035,-0.6815899900816356,-0.2926680399786372
1499369103163,-0.6631570916304264,-0.6829327840085448,-0.2965743495841915
1499369103179,-0.6646219577325092,-0.6850080109864956,-0.2953536278324558
1499369103195,-0.6646219577325092,-0.684885938811322,-0.29376668955519936
1499369103211,-0.6648661020828563,-0.6850080109864956,-0.2927901121538108
1499369103227,-0.6643778133821621,-0.6824444953078506,-0.2952315556572822
1499369103243,-0.6642557412069885,-0.6807354848554206,-0.29498741130693507
1499369103259,-0.6629129472800792,-0.6792706187533377,-0.2957198443579765
1499369103275,-0.6616922255283435,-0.6767071030746927,-0.29706263828488577
1499369103291,-0.6599832150759135,-0.6773174639505606,-0.2964522774090179
1499369103307,-0.6598611429007399,-0.6784161135271227,-0.29803921568627434
1499369103323,-0.6615701533531699,-0.6822003509575034,-0.2969405661097122
1499369103339,-0.6612039368276492,-0.6809796292057677,-0.2955977721828029
1499369103355,-0.6601052872510871,-0.6781719691767756,-0.2948653391317615
1499369103371,-0.6598611429007399,-0.6774395361257342,-0.2943770504310672
1499369103387,-0.6605935759517814,-0.6774395361257342,-0.29120317387655437
1499369103403,-0.6603494316014342,-0.6775616083009077,-0.29291218432898436
1499369103419,-0.6605935759517814,-0.6793926909285113,-0.28961623559929794
1499369103435,-0.6629129472800792,-0.6837872892347598,-0.2918135347524222
1499369103451,-0.6649881742580299,-0.6846417944609748,-0.2907148851758601
1499369103467,-0.6654764629587242,-0.6864728770885784,-0.2923018234531165
1499369103483,-0.6631570916304264,-0.686594949263752,-0.28961623559929794
1499369103499,-0.6624246585793849,-0.6846417944609748,-0.2880292973220415
1499369103515,-0.6620584420538642,-0.6835431448844127,-0.2898603799496451
1499369103531,-0.6630350194552528,-0.6842755779354541,-0.2918135347524222
1499369103548,-0.6644998855573356,-0.6834210727092391,-0.2886396581979094
1499369103564,-0.6632791638055999,-0.6834210727092391,-0.2894941634241244
1499369103580,-0.6615701533531699,-0.6839093614099334,-0.2886396581979094
1499369103596,-0.6598611429007399,-0.6825665674830241,-0.2897383077744715
1499369103612,-0.6544899671931028,-0.680613412680247,-0.29034866865033937
1499369103628,-0.6537575341420614,-0.6815899900816356,-0.29034866865033937
1499369103644,-0.6522926680399785,-0.678904402227817,-0.29303425650415793
1499369103660,-0.6543678950179292,-0.6759746700236513,-0.2964522774090179
1499369103676,-0.6551003280689707,-0.673777370870527,-0.30060273136491933
1499369103692,-0.652170595864805,-0.6738994430457006,-0.30133516441596075
1499369103708,-0.6491187914854657,-0.676340886549172,-0.2982833600366215
1499369103724,-0.6461890592813,-0.6759746700236513,-0.29681849393453863
1499369103740,-0.6471656366826886,-0.6768291752498663,-0.2974288548104065
1499369103756,-0.6499732967116807,-0.6747539482719156,-0.2998702983138779
1499369103772,-0.6519264515144578,-0.6738994430457006,-0.3036545357442586
1499369103788,-0.6553444724193178,-0.6745098039215685,-0.30646219577325073
1499369103804,-0.6565651941710535,-0.6735332265201799,-0.2995040817883572
1499369103820,-0.6536354619668878,-0.6781719691767756,-0.2991378652628365
1499369103836,-0.648752574959945,-0.6807354848554206,-0.2960860608834972
1499369103852,-0.6524147402151521,-0.6852521553368427,-0.2957198443579765
1499369103868,-0.6540016784924085,-0.6817120622568091,-0.29169146257724865
1499369103884,-0.6627908751049056,-0.687449454489967,-0.2943770504310672
1499369103900,-0.6747539482719156,-0.6919661249713895,-0.2881513694972151
1499369103916,-0.6765850308995192,-0.6955062180514231,-0.28632028686961153
1499369103932,-0.6757305256733042,-0.7019760433356224,-0.2842450598916608
1499369103948,-0.6751201647974363,-0.7029526207370109,-0.28961623559929794
1499369103964,-0.6758525978484777,-0.7035629816128788,-0.2876630807965208
1499369103980,-0.6708476386663613,-0.6989242389562831,-0.2905928130006865
1499369103996,-0.666941329060807,-0.6939192797741667,-0.2923018234531165
1499369104012,-0.6668192568856335,-0.6914778362706953,-0.30841535057602787
1499369104028,-0.6653543907835506,-0.6802471961547263,-0.31280994888227687
1499369104044,-0.6599832150759135,-0.6791485465781641,-0.31537346456092186
1499369104060,-0.6546120393682764,-0.677195391775387,-0.3257495994506754
1499369104076,-0.6532692454413671,-0.6676737621118485,-0.3306324864576182
1499369104092,-0.6480201419089036,-0.672922865644312,-0.34308384832532246
1499369104108,-0.64106202792401,-0.6751201647974363,-0.3562676432440681
1499369104124,-0.6398413061722743,-0.675486381322957,-0.3600518806744488
1499369104140,-0.6389868009460593,-0.6718242160677499,-0.36493476768139166
1499369104156,-0.6378881513694972,-0.6721904325932706,-0.37213702601663234
1499369104172,-0.6395971618219272,-0.6731670099946592,-0.3751888303959716
1499369104188,-0.6363012130922407,-0.6682841229877163,-0.37335774776836805
1499369104204,-0.6378881513694972,-0.6638895246814678,-0.37555504692149233
1499369104220,-0.6337376974135958,-0.6618142977035171,-0.3732356755931945
1499369104236,-0.6301976043335622,-0.6630350194552528,-0.3764095521477073
1499369104252,-0.620309758144503,-0.6624246585793849,-0.37079423208972306
1499369104268,-0.6154268711375601,-0.6620584420538642,-0.37750820172426947
1499369104284,-0.6166475928892958,-0.6582742046234835,-0.37714198519874875
1499369104300,-0.622018768596933,-0.65473411154345,-0.3820248722056916
1499369104316,-0.6216525520714122,-0.6549782558937971,-0.3781185626001373
1499369104332,-0.6227512016479744,-0.6592507820248721,-0.37555504692149233
1499369104348,-0.6204318303196765,-0.6629129472800792,-0.3760433356221866
1499369104364,-0.619455252918288,-0.6666971847104599,-0.37177080949111163
1499369104380,-0.6138399328603037,-0.6717021438925763,-0.3643244068055238
1499369104396,-0.6157930876630808,-0.6728007934691385,-0.3656672007324331
1499369104412,-0.6176241702906844,-0.675486381322957,-0.3681086442359045
1499369104428,-0.6179903868162051,-0.6774395361257342,-0.3681086442359045
1499369104444,-0.6225070572976272,-0.6767071030746927,-0.3693293659876402
1499369104460,-0.6215304798962387,-0.6768291752498663,-0.3648126955062181
