Timestamp (ms),Gyro X (°/s),Gyro Y (°/s),Gyro Z (°/s)
1499369078609,1.8005645838102282,-0.7019150072480898,0.3967345693140487
1499369078625,1.739528496223329,-0.5798428320745188,0.45777065690094787
1499369078641,1.739528496223329,-0.3967345693140487,0.5798428320745188
1499369078657,1.983672846570471,-0.09155413138023505,0.7019150072480898
1499369078673,2.04470893415737,0.15259021896690683,0.9460593575952316
1499369078689,2.04470893415737,0.213626306553806,1.0681315327688026
1499369078705,2.166781109330941,0.15259021896690683,1.1291676203554744
1499369078721,2.227817196917613,-0.213626306553806,0.9460593575952316
1499369078737,2.3498893720911838,-0.3967345693140487,0.7019150072480898
1499369078753,2.227817196917613,-0.5188067444876197,0.3967345693140487
1499369078769,2.105745021744042,-0.5188067444876197,0.2746623941404778
1499369078785,1.983672846570471,-0.6408789196611906,0.15259021896690683
1499369078801,2.04470893415737,-0.5798428320745188,-0.03051804379333589
1499369078817,2.166781109330941,-0.5798428320745188,-0.213626306553806
1499369078833,2.227817196917613,-0.6408789196611906,-0.2746623941404778
1499369078849,2.166781109330941,-0.5798428320745188,-0.15259021896690683
1499369078865,2.3498893720911838,-0.7629510948347615,0.15259021896690683
1499369078881,2.7771419851987957,-0.8239871824216607,0.45777065690094787
1499369078897,2.5940337224383256,-0.3967345693140487,0.6408789196611906
1499369078913,2.3498893720911838,-0.03051804379333589,0.7019150072480898
1499369078929,2.227817196917613,0.33569848172737693,0.7019150072480898
1499369078945,1.983672846570471,0.5798428320745188,0.7629510948347615
1499369078961,2.04470893415737,0.45777065690094787,0.8850232700083325
1499369078977,1.9226367589837992,0.5798428320745188,0.7629510948347615
1499369078993,1.8616006713969,0.7629510948347615,0.7019150072480898
1499369079009,1.4343480582895154,0.9460593575952316,0.5188067444876197
1499369079025,1.3122758831159445,0.7629510948347615,0.33569848172737693
1499369079041,1.4953841458761872,0.213626306553806,0.2746623941404778
1499369079057,1.4953841458761872,0.03051804379333589,0.33569848172737693
1499369079073,1.4953841458761872,0.15259021896690683,0.213626306553806
1499369079089,1.4343480582895154,0.33569848172737693,0.15259021896690683
1499369079105,0.9460593575952316,0.5798428320745188,0.15259021896690683
1499369079121,0.8239871824216607,0.3967345693140487,0.213626306553806
1499369079137,1.1291676203554744,0.03051804379333589,0.2746623941404778
1499369079153,1.5564202334630863,-0.33569848172737693,0.2746623941404778
1499369079169,2.166781109330941,-0.5188067444876197,0.33569848172737693
1499369079185,2.3498893720911838,-0.5188067444876197,0.5188067444876197
1499369079201,2.7161058976118966,-0.7019150072480898,0.5188067444876197
1499369079217,3.0823224231326094,-0.8850232700083325,0.5798428320745188
1499369079233,2.9602502479590385,-0.8239871824216607,0.5798428320745188
1499369079250,2.9602502479590385,-0.7629510948347615,0.6408789196611906
1499369079266,2.9602502479590385,-0.5798428320745188,0.7629510948347615
1499369079282,2.8381780727854675,-0.3967345693140487,0.8239871824216607
1499369079298,2.7771419851987957,-0.2746623941404778,0.8239871824216607
1499369079314,2.410925459678083,-0.03051804379333589,0.9460593575952316
1499369079330,2.04470893415737,0.15259021896690683,1.0681315327688026
1499369079346,2.105745021744042,0.03051804379333589,0.9460593575952316
1499369079362,2.4719615472647547,-0.2746623941404778,0.8850232700083325
1499369079378,2.9602502479590385,-0.5798428320745188,0.8239871824216607
1499369079394,3.1433585107195086,-0.6408789196611906,0.8239871824216607
1499369079410,3.3875028610666504,-0.7629510948347615,0.6408789196611906
1499369079426,3.570611123826893,-0.8850232700083325,0.45777065690094787
1499369079442,3.3264667734797513,-0.6408789196611906,0.45777065690094787
1499369079458,3.1433585107195086,-0.45777065690094787,0.5798428320745188
1499369079474,2.7161058976118966,0.03051804379333589,0.6408789196611906
1499369079490,2.410925459678083,0.3967345693140487,0.7629510948347615
1499369079506,2.166781109330941,0.5188067444876197,0.8850232700083325
1499369079522,2.288853284504512,0.33569848172737693,1.0070954451819034
1499369079538,2.655069810025225,0.213626306553806,1.0681315327688026
1499369079554,2.5940337224383256,0.3967345693140487,1.0681315327688026
1499369079570,2.227817196917613,0.7019150072480898,0.8850232700083325
1499369079586,2.3498893720911838,1.0681315327688026,0.7019150072480898
1499369079602,2.288853284504512,0.9460593575952316,0.5798428320745188
1499369079618,2.04470893415737,0.9460593575952316,0.5188067444876197
1499369079634,2.288853284504512,0.9460593575952316,0.5798428320745188
1499369079650,2.4719615472647547,0.7629510948347615,0.6408789196611906
1499369079666,1.9226367589837992,0.5798428320745188,0.5798428320745188
1499369079682,1.739528496223329,0.3967345693140487,0.213626306553806
1499369079698,2.227817196917613,0.213626306553806,-0.09155413138023505
1499369079714,2.166781109330941,-0.03051804379333589,-0.33569848172737693
1499369079730,2.3498893720911838,-0.5188067444876197,-0.45777065690094787
1499369079746,2.8381780727854675,-0.8850232700083325,-0.5798428320745188
1499369079762,3.1433585107195086,-1.0070954451819034,-0.5188067444876197
1499369079778,3.2654306858930795,-1.1291676203554744,-0.2746623941404778
1499369079794,2.9602502479590385,-1.1291676203554744,0.03051804379333589
1499369079810,2.9602502479590385,-1.1291676203554744,0.33569848172737693
1499369079826,2.8992141603723667,-1.1902037079423735,0.7629510948347615
1499369079842,2.532997634851654,-1.4953841458761872,0.8239871824216607
1499369079858,2.9602502479590385,-1.4343480582895154,0.5798428320745188
1499369079874,4.119935912108076,-1.0681315327688026,0.213626306553806
1499369079890,4.730296787975931,-0.8850232700083325,0.15259021896690683
1499369079906,5.157549401083315,-1.1902037079423735,0.15259021896690683
1499369079922,5.0354772259097444,-1.5564202334630863,0.3967345693140487
1499369079938,4.669260700389032,-1.8616006713969,0.5798428320745188
1499369079954,4.730296787975931,-2.105745021744042,0.5798428320745188
1499369079970,4.791332875562603,-2.227817196917613,0.6408789196611906
1499369079986,4.9134050507361735,-2.166781109330941,0.8850232700083325
1499369080002,4.60822461280236,-1.983672846570471,1.2512397955290453
1499369080018,4.60822461280236,-2.04470893415737,1.5564202334630863
1499369080034,4.730296787975931,-2.04470893415737,1.8005645838102282
1499369080050,4.242008087281647,-1.6174563210497581,2.04470893415737
1499369080066,3.875791561760934,-1.2512397955290453,2.105745021744042
1499369080082,3.997863736934505,-1.0681315327688026,1.983672846570471
1499369080098,4.364080262455218,-1.1291676203554744,1.9226367589837992
1499369080114,4.364080262455218,-0.9460593575952316,1.983672846570471
1499369080130,3.997863736934505,-0.7019150072480898,1.9226367589837992
1499369080146,3.875791561760934,-0.7019150072480898,1.9226367589837992
1499369080162,3.6316472114137923,-0.7019150072480898,1.9226367589837992
1499369080178,3.0823224231326094,-0.8239871824216607,1.8005645838102282
1499369080194,3.0212863355459376,-1.0070954451819034,1.4953841458761872
1499369080211,3.4485389486533222,-1.0070954451819034,1.1291676203554744
1499369080227,3.7537193865873633,-1.0070954451819034,0.8850232700083325
1499369080243,3.2654306858930795,-0.8239871824216607,0.8239871824216607
1499369080259,2.8992141603723667,-0.8239871824216607,0.7019150072480898
1499369080275,2.8381780727854675,-1.0070954451819034,0.7629510948347615
1499369080291,2.655069810025225,-1.0681315327688026,0.8850232700083325
1499369080307,2.7771419851987957,-1.1291676203554744,1.0070954451819034
1499369080323,2.8381780727854675,-1.1291676203554744,1.1902037079423735
1499369080339,2.9602502479590385,-1.0070954451819034,1.3122758831159445
1499369080355,3.5095750362402214,-1.0070954451819034,1.3733119707026162
1499369080371,3.5095750362402214,-0.8850232700083325,1.739528496223329
1499369080387,3.2043945983061803,-0.6408789196611906,1.9226367589837992
1499369080403,3.0823224231326094,-0.2746623941404778,1.983672846570471
1499369080419,3.0823224231326094,0.213626306553806,2.227817196917613
1499369080435,2.9602502479590385,0.45777065690094787,2.3498893720911838
1499369080451,2.8381780727854675,0.5798428320745188,2.410925459678083
1499369080467,2.7771419851987957,0.5798428320745188,2.410925459678083
1499369080483,2.9602502479590385,0.3967345693140487,2.410925459678083
1499369080499,3.1433585107195086,0.09155413138023505,2.288853284504512
1499369080515,3.2043945983061803,-0.2746623941404778,2.166781109330941
1499369080531,3.2043945983061803,-0.5188067444876197,1.983672846570471
1499369080547,3.4485389486533222,-0.6408789196611906,1.6174563210497581
1499369080563,3.4485389486533222,-0.5798428320745188,1.3122758831159445
1499369080579,3.1433585107195086,-0.45777065690094787,1.0681315327688026
1499369080595,3.1433585107195086,-0.5188067444876197,0.9460593575952316
1499369080611,2.8381780727854675,-0.7629510948347615,0.9460593575952316
1499369080627,2.5940337224383256,-1.1902037079423735,1.0070954451819034
1499369080643,2.288853284504512,-1.1902037079423735,0.8850232700083325
1499369080659,1.8616006713969,-0.9460593575952316,0.6408789196611906
1499369080675,1.6174563210497581,-0.8239871824216607,0.5798428320745188
1499369080691,1.3733119707026162,-0.8850232700083325,0.6408789196611906
1499369080707,1.0681315327688026,-1.0070954451819034,0.8239871824216607
1499369080723,0.8850232700083325,-1.0070954451819034,0.9460593575952316
1499369080739,0.5798428320745188,-0.5798428320745188,1.0681315327688026
1499369080755,0.2746623941404778,0.03051804379333589,1.1291676203554744
1499369080771,-0.2746623941404778,0.7019150072480898,1.2512397955290453
1499369080787,-0.2746623941404778,1.1902037079423735,1.3122758831159445
1499369080803,-0.2746623941404778,1.5564202334630863,1.4953841458761872
1499369080819,-0.3967345693140487,1.739528496223329,1.739528496223329
1499369080835,0.09155413138023505,1.6174563210497581,1.983672846570471
1499369080851,-0.15259021896690683,1.6174563210497581,2.105745021744042
1499369080867,-0.15259021896690683,1.3733119707026162,2.105745021744042
1499369080883,0.5188067444876197,0.8850232700083325,1.983672846570471
1499369080899,1.0070954451819034,0.6408789196611906,1.8005645838102282
1499369080915,1.3122758831159445,0.5798428320745188,1.5564202334630863
1499369080931,1.4343480582895154,0.5188067444876197,1.3733119707026162
1499369080947,1.5564202334630863,0.45777065690094787,1.1291676203554744
1499369080963,1.8005645838102282,0.33569848172737693,1.0070954451819034
1499369080979,2.04470893415737,0.15259021896690683,0.8850232700083325
1499369080995,2.105745021744042,0.213626306553806,0.8850232700083325
1499369081011,1.9226367589837992,0.33569848172737693,1.0681315327688026
1499369081027,1.8005645838102282,0.2746623941404778,1.1902037079423735
1499369081043,1.6174563210497581,0.213626306553806,1.1902037079423735
1499369081059,1.4953841458761872,0.2746623941404778,1.1291676203554744
1499369081075,2.105745021744042,0.03051804379333589,1.0070954451819034
1499369081091,2.288853284504512,0.03051804379333589,1.1291676203554744
1499369081107,2.227817196917613,0.213626306553806,1.2512397955290453
1499369081123,2.5940337224383256,0.213626306553806,1.4953841458761872
1499369081139,3.0823224231326094,0.15259021896690683,1.6784924086366573
1499369081155,2.5940337224383256,0.45777065690094787,1.739528496223329
1499369081172,2.166781109330941,0.6408789196611906,1.5564202334630863
1499369081188,1.9226367589837992,0.7019150072480898,1.2512397955290453
1499369081204,1.739528496223329,0.5188067444876197,1.1902037079423735
1499369081220,2.105745021744042,0.09155413138023505,1.1902037079423735
1499369081236,2.7161058976118966,-0.3967345693140487,1.3122758831159445
1499369081252,2.655069810025225,-0.6408789196611906,1.3733119707026162
1499369081268,1.983672846570471,-0.5188067444876197,1.3122758831159445
1499369081284,1.2512397955290453,-0.33569848172737693,0.9460593575952316
1499369081300,0.9460593575952316,-0.15259021896690683,0.45777065690094787
1499369081316,0.8850232700083325,-0.09155413138023505,0.09155413138023505
1499369081332,1.5564202334630863,-0.213626306553806,-0.15259021896690683
1499369081348,1.3733119707026162,-0.03051804379333589,-0.15259021896690683
1499369081364,0.9460593575952316,0.15259021896690683,0.15259021896690683
1499369081380,0.9460593575952316,0.2746623941404778,0.213626306553806
1499369081396,0.3967345693140487,0.5188067444876197,0.3967345693140487
1499369081412,0.3967345693140487,0.7019150072480898,0.5188067444876197
1499369081428,0.7629510948347615,0.5798428320745188,0.5798428320745188
1499369081444,0.5798428320745188,0.7019150072480898,0.5798428320745188
1499369081460,0.6408789196611906,0.7019150072480898,0.3967345693140487
1499369081476,0.2746623941404778,0.8850232700083325,0.33569848172737693
1499369081492,-0.09155413138023505,0.8850232700083325,0.15259021896690683
1499369081508,-0.2746623941404778,0.9460593575952316,-0.09155413138023505
1499369081524,-0.213626306553806,0.6408789196611906,-0.213626306553806
1499369081540,0.15259021896690683,0.15259021896690683,-0.33569848172737693
1499369081556,0.5188067444876197,-0.09155413138023505,-0.33569848172737693
1499369081572,0.9460593575952316,-0.213626306553806,-0.2746623941404778
1499369081588,1.4343480582895154,-0.3967345693140487,-0.03051804379333589
1499369081604,1.9226367589837992,-0.5188067444876197,0.15259021896690683
1499369081620,2.288853284504512,-0.6408789196611906,0.45777065690094787
1499369081636,3.1433585107195086,-0.8239871824216607,0.8239871824216607
1499369081652,3.7537193865873633,-0.5798428320745188,1.2512397955290453
1499369081668,3.814755474174035,-0.03051804379333589,1.6174563210497581
1499369081684,3.7537193865873633,0.33569848172737693,1.9226367589837992
1499369081700,3.692683299000464,0.15259021896690683,2.04470893415737
1499369081716,4.119935912108076,-0.45777065690094787,2.04470893415737
1499369081732,4.974441138323073,-1.1902037079423735,1.8005645838102282
1499369081748,5.279621576256886,-1.5564202334630863,1.6784924086366573
1499369081764,5.401693751430457,-1.739528496223329,1.4953841458761872
1499369081780,5.2185854886702145,-1.9226367589837992,1.3122758831159445
1499369081796,4.791332875562603,-2.04470893415737,1.1902037079423735
1499369081812,4.486152437628789,-2.105745021744042,0.9460593575952316
1499369081828,4.180971999694748,-2.105745021744042,0.7019150072480898
1499369081844,3.875791561760934,-1.6784924086366573,0.5798428320745188
1499369081860,3.5095750362402214,-1.3733119707026162,0.5798428320745188
1499369081876,3.2043945983061803,-1.2512397955290453,0.6408789196611906
1499369081892,3.2043945983061803,-1.3733119707026162,0.8850232700083325
1499369081908,3.1433585107195086,-1.1291676203554744,1.0681315327688026
1499369081924,3.0212863355459376,-1.0070954451819034,1.1902037079423735
1499369081940,2.655069810025225,-0.7629510948347615,1.5564202334630863
1499369081956,2.3498893720911838,-0.5188067444876197,1.6784924086366573
1499369081972,2.410925459678083,-0.45777065690094787,1.8005645838102282
1499369081988,2.655069810025225,-0.33569848172737693,1.9226367589837992
1499369082004,2.5940337224383256,-0.03051804379333589,1.983672846570471
1499369082020,2.7161058976118966,0.09155413138023505,2.105745021744042
1499369082036,2.9602502479590385,0.03051804379333589,2.04470893415737
1499369082052,3.3875028610666504,0.09155413138023505,2.105745021744042
1499369082068,3.5095750362402214,0.09155413138023505,2.227817196917613
1499369082084,3.692683299000464,-0.15259021896690683,2.227817196917613
1499369082100,3.3875028610666504,-0.33569848172737693,2.04470893415737
1499369082116,3.2043945983061803,-0.5798428320745188,1.8616006713969
1499369082133,3.3264667734797513,-1.0681315327688026,1.739528496223329
1499369082149,3.2043945983061803,-1.4343480582895154,1.6784924086366573
1499369082165,2.7771419851987957,-1.5564202334630863,1.5564202334630863
1499369082181,2.166781109330941,-1.1291676203554744,1.1291676203554744
1499369082197,1.6784924086366573,-0.6408789196611906,0.7629510948347615
1499369082213,1.4343480582895154,-0.5188067444876197,0.5798428320745188
1499369082229,1.0070954451819034,-0.3967345693140487,0.2746623941404778
1499369082245,0.7019150072480898,-0.09155413138023505,-0.09155413138023505
1499369082261,0.7019150072480898,0.213626306553806,-0.33569848172737693
1499369082277,0.09155413138023505,0.45777065690094787,-0.2746623941404778
1499369082293,-0.33569848172737693,0.33569848172737693,-0.2746623941404778
1499369082309,-0.2746623941404778,0.03051804379333589,-0.15259021896690683
1499369082325,0.09155413138023505,-0.2746623941404778,-0.2746623941404778
1499369082341,-0.03051804379333589,-0.5798428320745188,-0.33569848172737693
1499369082357,-0.5798428320745188,-0.45777065690094787,-0.5798428320745188
1499369082373,-0.45777065690094787,-0.5188067444876197,-1.1902037079423735
1499369082389,-0.09155413138023505,-0.3967345693140487,-1.739528496223329
1499369082405,0.7019150072480898,-0.5188067444876197,-1.983672846570471
1499369082421,1.3733119707026162,-0.8239871824216607,-1.4953841458761872
1499369082437,1.2512397955290453,-0.9460593575952316,-0.6408789196611906
1499369082453,1.3122758831159445,-1.1902037079423735,-0.03051804379333589
1499369082469,1.8005645838102282,-1.1902037079423735,0.2746623941404778
1499369082485,2.04470893415737,-1.0070954451819034,0.45777065690094787
1499369082501,2.410925459678083,-0.8850232700083325,0.5798428320745188
1499369082517,2.7771419851987957,-0.8850232700083325,0.5798428320745188
1499369082533,2.7161058976118966,-0.6408789196611906,0.6408789196611906
1499369082549,2.5940337224383256,-0.09155413138023505,0.6408789196611906
1499369082565,1.983672846570471,0.45777065690094787,0.6408789196611906
1499369082581,1.0681315327688026,0.8850232700083325,0.5188067444876197
1499369082597,0.5188067444876197,0.6408789196611906,0.3967345693140487
1499369082613,0.15259021896690683,0.09155413138023505,0.33569848172737693
1499369082629,-0.5798428320745188,-0.09155413138023505,0.213626306553806
1499369082645,-0.8850232700083325,-0.2746623941404778,0.03051804379333589
1499369082661,-1.3122758831159445,-0.213626306553806,-0.3967345693140487
1499369082677,-1.8616006713969,0.09155413138023505,-1.0681315327688026
1499369082693,-2.105745021744042,0.213626306553806,-1.6174563210497581
1499369082709,-2.166781109330941,0.33569848172737693,-2.105745021744042
1499369082725,-2.105745021744042,0.33569848172737693,-2.4719615472647547
1499369082741,-2.3498893720911838,0.33569848172737693,-2.8992141603723667
1499369082757,-2.532997634851654,0.2746623941404778,-3.3875028610666504
1499369082773,-2.5940337224383256,0.33569848172737693,-4.058899824521177
1499369082789,-3.2043945983061803,0.45777065690094787,-4.60822461280236
1499369082805,-4.119935912108076,0.5188067444876197,-5.2185854886702145
1499369082821,-4.974441138323073,0.5188067444876197,-5.95101853971164
1499369082837,-5.584802014190927,0.2746623941404778,-6.683451590753066
1499369082853,-6.256198977645454,0.33569848172737693,-7.598992904554734
1499369082869,-6.744487678339738,0.6408789196611906,-8.697642481116873
1499369082885,-6.683451590753066,0.8239871824216607,-9.55214770733187
1499369082901,-6.744487678339738,0.8239871824216607,-10.345616845960194
1499369082917,-6.744487678339738,0.6408789196611906,-10.89494163424115
1499369082933,-7.537956816968062,0.213626306553806,-11.444266422522333
1499369082949,-8.392462043183059,-0.5798428320745188,-12.23773556115043
1499369082965,-8.392462043183059,-1.6174563210497581,-13.031204699778755
1499369082981,-8.758678568703772,-2.04470893415737,-13.824673838406852
1499369082997,-9.185931181811156,-1.9226367589837992,-14.312962539101136
1499369083013,-9.67421988250544,-1.8616006713969,-14.618142977035177
1499369083029,-9.85732814526591,-2.166781109330941,-14.740215152208748
1499369083045,-9.369039444571627,-3.0823224231326094,-14.618142977035177
1499369083061,-8.45349813076973,-2.9602502479590385,-14.373998626688035
1499369083077,-7.232776379034021,-2.8381780727854675,-14.190890363927565
1499369083094,-5.828946364538069,-3.0823224231326094,-13.946746013580423
1499369083110,-4.547188525215461,-3.875791561760934,-13.519493400473038
1499369083126,-3.875791561760934,-4.364080262455218,-13.153276874952326
1499369083142,-2.9602502479590385,-4.791332875562603,-12.726024261844714
1499369083158,-0.8850232700083325,-5.523765926604028,-12.054627298390187
1499369083174,-0.7629510948347615,-5.76791027695117,-10.650797283894008
1499369083190,-0.8850232700083325,-5.706874189364498,-9.73525597009234
1499369083206,1.1291676203554744,-6.012054627298312,-8.941786831464015
1499369083222,2.105745021744042,-5.76791027695117,-8.148317692835917
1499369083238,-0.09155413138023505,-5.157549401083315,-7.4158846417944915
1499369083254,0.5798428320745188,-5.462729839017356,-7.049668116273779
1499369083270,3.3264667734797513,-5.706874189364498,-6.927595941100208
1499369083286,2.7161058976118966,-4.791332875562603,-6.256198977645454
1499369083302,1.6174563210497581,-3.6316472114137923,-5.584802014190927
1499369083318,2.227817196917613,-3.2043945983061803,-4.852368963149502
1499369083334,1.6174563210497581,-2.410925459678083,-3.936827649347606
1499369083350,0.3967345693140487,-1.4953841458761872,-3.2654306858930795
1499369083366,0.2746623941404778,-0.9460593575952316,-2.655069810025225
1499369083382,-0.45777065690094787,0.15259021896690683,-1.983672846570471
1499369083398,-1.0070954451819034,1.3733119707026162,-1.3733119707026162
1499369083414,-0.7629510948347615,2.227817196917613,-0.7629510948347615
1499369083430,0.09155413138023505,2.3498893720911838,0.03051804379333589
1499369083446,1.3122758831159445,2.9602502479590385,0.8850232700083325
1499369083462,2.04470893415737,3.936827649347606,1.9226367589837992
1499369083478,2.410925459678083,4.058899824521177,2.9602502479590385
1499369083494,3.997863736934505,3.0212863355459376,3.7537193865873633
1499369083510,5.889982452124741,1.6784924086366573,4.364080262455218
1499369083526,6.744487678339738,0.6408789196611906,4.852368963149502
1499369083542,6.317235065232353,0.03051804379333589,5.401693751430457
1499369083558,5.584802014190927,-0.2746623941404778,6.012054627298312
1499369083574,5.0354772259097444,0.09155413138023505,6.622415503166167
1499369083590,5.157549401083315,0.7629510948347615,7.4158846417944915
1499369083606,6.195162890058782,1.2512397955290453,8.148317692835917
1499369083622,7.049668116273779,1.6784924086366573,8.880750743877343
1499369083638,6.9886320286868795,1.9226367589837992,9.67421988250544
1499369083654,7.660028992141633,1.1902037079423735,10.223544670786623
1499369083670,8.575570305943302,0.03051804379333589,10.589761196307336
1499369083686,8.758678568703772,-0.3967345693140487,11.07804989700162
1499369083702,8.45349813076973,-0.33569848172737693,11.444266422522333
1499369083718,7.660028992141633,0.15259021896690683,11.871519035629717
1499369083734,6.500343327992596,0.7629510948347615,12.054627298390187
1499369083750,5.401693751430457,1.5564202334630863,11.993591210803288
1499369083766,6.195162890058782,1.5564202334630863,11.444266422522333
1499369083782,7.049668116273779,1.0681315327688026,11.566338597695903
1499369083798,5.645838101777599,1.4343480582895154,11.932555123216616
1499369083814,5.096513313496644,1.4953841458761872,11.871519035629717
1499369083830,6.805523765926637,1.3733119707026162,11.566338597695903
1499369083846,7.721065079728305,1.6174563210497581,11.444266422522333
1499369083862,7.904173342488775,1.8005645838102282,11.261158159761862
1499369083878,8.697642481116873,1.6784924086366573,11.139085984588291
1499369083894,9.124895094224485,1.4953841458761872,11.01701380941472
1499369083910,9.124895094224485,1.4953841458761872,10.772869459067579
1499369083926,8.575570305943302,1.6784924086366573,10.406652933546866
1499369083942,7.4158846417944915,1.9226367589837992,9.979400320439481
1499369083958,6.927595941100208,2.04470893415737,9.491111619745197
1499369083974,6.683451590753066,2.105745021744042,9.002822919050914
1499369083990,6.927595941100208,1.9226367589837992,8.575570305943302
1499369084006,7.721065079728305,1.4953841458761872,8.209353780422589
1499369084022,8.087281605249018,1.2512397955290453,7.965209430075447
1499369084038,8.270389868009488,1.1902037079423735,7.660028992141633
1499369084055,8.758678568703772,1.1291676203554744,7.476920729381163
1499369084071,8.880750743877343,1.1902037079423735,7.4158846417944915
1499369084087,8.697642481116873,1.2512397955290453,7.2938124666209205
1499369084103,8.33142595559616,1.0681315327688026,7.2938124666209205
1499369084119,7.537956816968062,1.0681315327688026,7.476920729381163
1499369084135,6.9886320286868795,1.2512397955290453,7.4158846417944915
1499369084151,6.256198977645454,1.4953841458761872,7.4158846417944915
1499369084167,5.462729839017356,1.8005645838102282,7.232776379034021
1499369084183,5.645838101777599,1.739528496223329,6.8665598535133086
1499369084199,6.073090714885211,1.6784924086366573,6.500343327992596
1499369084215,6.317235065232353,1.4343480582895154,6.256198977645454
1499369084231,6.195162890058782,1.1902037079423735,6.195162890058782
1499369084247,5.889982452124741,1.4343480582895154,6.073090714885211
1499369084263,5.95101853971164,1.739528496223329,5.889982452124741
1499369084279,5.828946364538069,2.105745021744042,5.889982452124741
1499369084295,5.95101853971164,2.227817196917613,5.828946364538069
1499369084311,6.683451590753066,2.105745021744042,5.95101853971164
1499369084327,7.17174029144735,1.8005645838102282,6.195162890058782
1499369084343,6.8665598535133086,1.4953841458761872,6.439307240405924
1499369084359,6.805523765926637,1.1902037079423735,6.561379415579495
1499369084375,7.354848554207592,0.7629510948347615,6.561379415579495
1499369084391,7.17174029144735,0.6408789196611906,6.744487678339738
1499369084407,7.354848554207592,0.33569848172737693,6.805523765926637
1499369084423,8.575570305943302,-0.2746623941404778,6.195162890058782
1499369084439,8.880750743877343,-0.45777065690094787,6.256198977645454
1499369084455,8.026245517662346,-0.5188067444876197,6.317235065232353
1499369084471,7.4158846417944915,-0.8239871824216607,6.012054627298312
1499369084487,8.45349813076973,-1.3733119707026162,5.706874189364498
1499369084503,8.392462043183059,-1.3122758831159445,5.706874189364498
1499369084519,7.598992904554734,-0.8239871824216607,5.3406576638437855
1499369084535,7.476920729381163,-0.7629510948347615,4.852368963149502
1499369084551,6.195162890058782,-0.33569848172737693,4.547188525215461
1499369084567,5.584802014190927,-0.3967345693140487,4.180971999694748
1499369084583,5.096513313496644,-0.6408789196611906,3.936827649347606
1499369084599,4.42511635004189,-0.7019150072480898,3.692683299000464
1499369084615,4.974441138323073,-1.0070954451819034,3.2043945983061803
1499369084631,4.669260700389032,-0.9460593575952316,2.7771419851987957
1499369084647,3.6316472114137923,-1.1902037079423735,2.410925459678083
1499369084663,4.42511635004189,-2.288853284504512,1.3733119707026162
1499369084679,7.904173342488775,-4.058899824521177,0.7629510948347615
1499369084695,3.3264667734797513,-4.303044174868319,2.532997634851654
1499369084711,-4.60822461280236,-4.058899824521177,3.936827649347606
1499369084727,2.04470893415737,-3.5095750362402214,4.119935912108076
1499369084743,7.537956816968062,-0.213626306553806,3.997863736934505
1499369084759,8.148317692835917,3.936827649347606,3.6316472114137923
1499369084775,7.537956816968062,4.42511635004189,2.9602502479590385
1499369084791,5.3406576638437855,5.157549401083315,2.4719615472647547
1499369084807,7.2938124666209205,6.256198977645454,1.4343480582895154
1499369084823,9.430075532158298,8.6366063935302,1.6174563210497581
1499369084839,5.0354772259097444,12.787060349431613,3.0212863355459376
1499369084855,6.744487678339738,13.519493400473038,2.166781109330941
1499369084871,10.406652933546866,11.810482948043045,-0.45777065690094787
1499369084887,7.17174029144735,11.505302510109004,-1.3733119707026162
1499369084903,1.739528496223329,11.20012207217519,0.8239871824216607
1499369084919,7.476920729381163,8.087281605249018,1.1902037079423735
1499369084935,11.261158159761862,5.706874189364498,0.15259021896690683
1499369084951,7.11070420386045,4.119935912108076,-1.4953841458761872
1499369084967,7.232776379034021,0.9460593575952316,-4.486152437628789
1499369084983,7.17174029144735,-1.739528496223329,-6.500343327992596
1499369084999,4.974441138323073,-3.4485389486533222,-5.462729839017356
1499369085016,5.523765926604028,-2.8992141603723667,-3.936827649347606
1499369085032,14.190890363927565,-1.2512397955290453,-2.8381780727854675
1499369085048,15.289539940489703,1.5564202334630863,-0.5188067444876197
1499369085064,11.07804989700162,1.8616006713969,2.166781109330941
1499369085080,8.45349813076973,1.0681315327688026,3.2043945983061803
1499369085096,6.378271152819025,1.8005645838102282,2.9602502479590385
1499369085112,6.805523765926637,1.9226367589837992,3.3875028610666504
1499369085128,6.561379415579495,1.3122758831159445,5.462729839017356
1499369085144,3.2654306858930795,0.7629510948347615,7.904173342488775
1499369085160,2.9602502479590385,-0.5798428320745188,8.6366063935302
1499369085176,3.1433585107195086,-2.288853284504512,8.392462043183059
1499369085192,-1.8616006713969,-2.288853284504512,8.575570305943302
1499369085208,-5.889982452124741,-2.227817196917613,8.270389868009488
1499369085224,-6.317235065232353,-3.692683299000464,6.8665598535133086
1499369085240,-6.927595941100208,-5.2185854886702145,5.462729839017356
1499369085256,-8.392462043183059,-4.364080262455218,3.3875028610666504
1499369085272,-9.55214770733187,-0.7019150072480898,1.2512397955290453
1499369085288,-8.148317692835917,2.8381780727854675,-0.33569848172737693
1499369085304,-3.1433585107195086,3.2043945983061803,-1.0070954451819034
1499369085320,2.7771419851987957,1.2512397955290453,-0.8239871824216607
1499369085336,5.096513313496644,0.2746623941404778,0.09155413138023505
1499369085352,5.401693751430457,0.2746623941404778,0.8850232700083325
1499369085368,5.584802014190927,0.3967345693140487,1.4953841458761872
1499369085384,4.42511635004189,0.6408789196611906,1.983672846570471
1499369085400,3.0823224231326094,0.45777065690094787,2.227817196917613
1499369085416,1.1291676203554744,0.213626306553806,2.410925459678083
1499369085432,-1.3733119707026162,0.33569848172737693,2.4719615472647547
1499369085448,-2.8381780727854675,0.213626306553806,2.4719615472647547
1499369085464,-3.6316472114137923,0.7019150072480898,2.04470893415737
1499369085480,-2.4719615472647547,1.4953841458761872,1.2512397955290453
1499369085496,-1.6174563210497581,1.6784924086366573,0.5188067444876197
1499369085512,-2.532997634851654,2.105745021744042,0.03051804379333589
1499369085528,-3.3264667734797513,2.7161058976118966,-0.45777065690094787
1499369085544,-3.692683299000464,3.2654306858930795,-0.7629510948347615
1499369085560,-3.6316472114137923,2.8381780727854675,-0.45777065690094787
1499369085576,-2.8992141603723667,1.8005645838102282,-0.33569848172737693
1499369085592,-3.1433585107195086,2.105745021744042,-0.2746623941404778
1499369085608,-2.655069810025225,2.8381780727854675,-0.45777065690094787
1499369085624,-1.5564202334630863,3.1433585107195086,-0.5188067444876197
1499369085640,-0.03051804379333589,2.288853284504512,-0.3967345693140487
1499369085656,0.2746623941404778,1.4953841458761872,0.09155413138023505
1499369085672,-1.0070954451819034,1.2512397955290453,0.5188067444876197
1499369085688,-0.5188067444876197,0.7629510948347615,0.5188067444876197
1499369085704,0.7019150072480898,0.2746623941404778,0.33569848172737693
1499369085720,-0.15259021896690683,0.33569848172737693,0.3967345693140487
1499369085736,-0.33569848172737693,0.15259021896690683,0.213626306553806
1499369085752,0.45777065690094787,-0.2746623941404778,-0.213626306553806
1499369085768,0.15259021896690683,-0.45777065690094787,-0.3967345693140487
1499369085784,-0.09155413138023505,-0.7019150072480898,-0.45777065690094787
1499369085800,0.9460593575952316,-1.2512397955290453,-0.7019150072480898
1499369085816,2.227817196917613,-1.8005645838102282,-1.0070954451819034
1499369085832,3.6316472114137923,-2.288853284504512,-1.2512397955290453
1499369085848,4.852368963149502,-2.655069810025225,-1.1902037079423735
1499369085864,5.462729839017356,-2.7161058976118966,-0.5798428320745188
1499369085880,5.645838101777599,-2.105745021744042,0.09155413138023505
1499369085896,5.645838101777599,-1.3733119707026162,0.8850232700083325
1499369085912,5.889982452124741,-0.6408789196611906,1.6784924086366573
1499369085929,6.256198977645454,-0.213626306553806,2.166781109330941
1499369085945,6.195162890058782,-0.09155413138023505,2.655069810025225
1499369085961,6.073090714885211,0.09155413138023505,2.8992141603723667
1499369085977,5.706874189364498,0.03051804379333589,3.0212863355459376
1499369085993,4.669260700389032,-0.03051804379333589,3.0212863355459376
1499369086009,3.5095750362402214,-0.213626306553806,2.8381780727854675
1499369086025,2.3498893720911838,-0.2746623941404778,2.410925459678083
1499369086041,1.6174563210497581,-0.45777065690094787,1.6174563210497581
1499369086057,1.3733119707026162,-0.7629510948347615,0.7019150072480898
1499369086073,0.6408789196611906,-0.8850232700083325,-0.03051804379333589
1499369086089,0.09155413138023505,-0.8850232700083325,-0.8239871824216607
1499369086105,-0.5188067444876197,-0.7629510948347615,-1.3122758831159445
1499369086121,-1.0070954451819034,-0.7019150072480898,-1.4953841458761872
1499369086137,-0.8850232700083325,-0.8239871824216607,-1.5564202334630863
1499369086153,-0.5188067444876197,-1.0070954451819034,-1.3122758831159445
1499369086169,0.33569848172737693,-1.1291676203554744,-0.9460593575952316
1499369086185,1.2512397955290453,-1.0070954451819034,-0.5188067444876197
1499369086201,1.6784924086366573,-0.7629510948347615,-0.03051804379333589
1499369086217,1.983672846570471,-0.5798428320745188,0.33569848172737693
1499369086233,2.5940337224383256,-0.33569848172737693,0.6408789196611906
1499369086249,3.3264667734797513,-0.15259021896690683,1.0681315327688026
1499369086265,3.7537193865873633,-0.09155413138023505,1.4953841458761872
1499369086281,4.119935912108076,-0.15259021896690683,1.6784924086366573
1499369086297,4.42511635004189,-0.33569848172737693,1.8005645838102282
1499369086313,4.486152437628789,-0.5188067444876197,1.739528496223329
1499369086329,4.303044174868319,-0.7019150072480898,1.5564202334630863
1499369086345,3.875791561760934,-0.7019150072480898,1.3733119707026162
1499369086361,3.6316472114137923,-0.6408789196611906,1.1291676203554744
1499369086377,3.1433585107195086,-0.5188067444876197,0.8850232700083325
1499369086393,2.7161058976118966,-0.3967345693140487,0.7019150072480898
1499369086409,2.3498893720911838,-0.3967345693140487,0.5798428320745188
1499369086425,1.9226367589837992,-0.33569848172737693,0.45777065690094787
1499369086441,1.5564202334630863,-0.2746623941404778,0.2746623941404778
1499369086457,1.2512397955290453,-0.33569848172737693,0.15259021896690683
1499369086473,1.0070954451819034,-0.45777065690094787,-0.03051804379333589
1499369086489,0.9460593575952316,-0.5188067444876197,-0.09155413138023505
1499369086505,0.8850232700083325,-0.3967345693140487,-0.15259021896690683
1499369086521,1.0681315327688026,-0.45777065690094787,-0.213626306553806
1499369086537,1.1902037079423735,-0.6408789196611906,-0.2746623941404778
1499369086553,1.4343480582895154,-0.7629510948347615,-0.213626306553806
1499369086569,1.6784924086366573,-0.7019150072480898,-0.15259021896690683
1499369086585,1.8005645838102282,-0.7019150072480898,-0.09155413138023505
1499369086601,2.105745021744042,-0.7019150072480898,0.03051804379333589
1499369086617,2.410925459678083,-0.7629510948347615,0.213626306553806
1499369086633,2.7771419851987957,-0.8239871824216607,0.2746623941404778
1499369086649,3.2654306858930795,-1.0681315327688026,0.33569848172737693
1499369086665,3.6316472114137923,-1.2512397955290453,0.3967345693140487
1499369086681,3.875791561760934,-1.3733119707026162,0.33569848172737693
1499369086697,3.814755474174035,-1.4343480582895154,0.3967345693140487
1499369086713,3.3875028610666504,-1.0070954451819034,0.45777065690094787
1499369086729,3.3264667734797513,-0.8239871824216607,0.45777065690094787
1499369086745,2.9602502479590385,-0.3967345693140487,0.7629510948347615
1499369086761,2.166781109330941,0.15259021896690683,0.9460593575952316
1499369086777,2.410925459678083,0.2746623941404778,0.9460593575952316
1499369086793,2.166781109330941,0.2746623941404778,0.8850232700083325
1499369086809,2.166781109330941,-0.03051804379333589,0.8239871824216607
1499369086825,2.105745021744042,-0.213626306553806,0.7629510948347615
1499369086842,1.9226367589837992,-0.33569848172737693,0.6408789196611906
1499369086858,2.105745021744042,-0.5188067444876197,0.7019150072480898
1499369086874,1.6784924086366573,-0.3967345693140487,0.6408789196611906
1499369086890,1.983672846570471,-0.45777065690094787,0.5798428320745188
1499369086906,2.227817196917613,-0.5798428320745188,0.45777065690094787
1499369086922,1.983672846570471,-0.45777065690094787,0.3967345693140487
1499369086938,2.105745021744042,-0.5188067444876197,0.33569848172737693
1499369086954,2.166781109330941,-0.5188067444876197,0.2746623941404778
1499369086970,2.288853284504512,-0.5188067444876197,0.33569848172737693
1499369086986,2.3498893720911838,-0.45777065690094787,0.3967345693140487
1499369087002,2.3498893720911838,-0.45777065690094787,0.5188067444876197
1499369087018,2.227817196917613,-0.33569848172737693,0.6408789196611906
1499369087034,2.166781109330941,-0.2746623941404778,0.5798428320745188
1499369087050,2.227817196917613,-0.213626306553806,0.5798428320745188
1499369087066,2.04470893415737,-0.03051804379333589,0.7629510948347615
1499369087082,2.105745021744042,-0.03051804379333589,0.8850232700083325
1499369087098,2.105745021744042,0.03051804379333589,0.8239871824216607
1499369087114,2.04470893415737,-0.03051804379333589,0.7629510948347615
1499369087130,1.8616006713969,-0.03051804379333589,0.7019150072480898
1499369087146,1.8005645838102282,-0.213626306553806,0.6408789196611906
1499369087162,2.166781109330941,-0.45777065690094787,0.5798428320745188
1499369087178,1.983672846570471,-0.45777065690094787,0.6408789196611906
1499369087194,1.8616006713969,-0.2746623941404778,0.7629510948347615
1499369087210,2.166781109330941,-0.33569848172737693,0.7019150072480898
1499369087226,2.227817196917613,-0.2746623941404778,0.5798428320745188
1499369087242,1.983672846570471,-0.213626306553806,0.7019150072480898
1499369087258,1.9226367589837992,-0.15259021896690683,0.7019150072480898
1499369087274,2.04470893415737,-0.213626306553806,0.5798428320745188
1499369087290,2.04470893415737,-0.2746623941404778,0.6408789196611906
1499369087306,1.983672846570471,-0.2746623941404778,0.7019150072480898
1499369087322,2.04470893415737,-0.2746623941404778,0.6408789196611906
1499369087338,2.166781109330941,-0.33569848172737693,0.6408789196611906
1499369087354,2.105745021744042,-0.33569848172737693,0.6408789196611906
1499369087370,2.166781109330941,-0.33569848172737693,0.5798428320745188
1499369087386,2.166781109330941,-0.33569848172737693,0.5188067444876197
1499369087402,2.04470893415737,-0.3967345693140487,0.3967345693140487
1499369087418,2.166781109330941,-0.5188067444876197,0.45777065690094787
1499369087434,2.288853284504512,-0.7019150072480898,0.5798428320745188
1499369087450,2.227817196917613,-0.6408789196611906,0.6408789196611906
1499369087466,2.105745021744042,-0.45777065690094787,0.6408789196611906
1499369087482,2.04470893415737,-0.33569848172737693,0.45777065690094787
1499369087498,2.105745021744042,-0.3967345693140487,0.45777065690094787
1499369087514,2.227817196917613,-0.33569848172737693,0.33569848172737693
1499369087530,2.105745021744042,-0.213626306553806,0.45777065690094787
1499369087546,1.983672846570471,-0.09155413138023505,0.5188067444876197
1499369087562,1.983672846570471,-0.213626306553806,0.5188067444876197
1499369087578,1.8005645838102282,-0.213626306553806,0.45777065690094787
1499369087594,1.6784924086366573,-0.15259021896690683,0.45777065690094787
1499369087610,1.6784924086366573,-0.15259021896690683,0.3967345693140487
1499369087626,1.6174563210497581,-0.15259021896690683,0.3967345693140487
1499369087642,1.8005645838102282,-0.33569848172737693,0.33569848172737693
1499369087658,1.8616006713969,-0.3967345693140487,0.2746623941404778
1499369087674,1.8616006713969,-0.5188067444876197,0.213626306553806
1499369087690,1.9226367589837992,-0.6408789196611906,0.213626306553806
1499369087706,2.105745021744042,-0.7019150072480898,0.2746623941404778
1499369087722,1.983672846570471,-0.6408789196611906,0.33569848172737693
1499369087738,2.227817196917613,-0.5798428320745188,0.3967345693140487
1499369087754,2.4719615472647547,-0.5188067444876197,0.33569848172737693
1499369087770,2.4719615472647547,-0.45777065690094787,0.45777065690094787
1499369087786,2.4719615472647547,-0.33569848172737693,0.5798428320745188
1499369087803,2.4719615472647547,-0.33569848172737693,0.5798428320745188
1499369087819,2.532997634851654,-0.45777065690094787,0.5798428320745188
1499369087835,2.655069810025225,-0.6408789196611906,0.5188067444876197
1499369087851,2.7771419851987957,-0.8239871824216607,0.45777065690094787
1499369087867,2.8992141603723667,-1.0681315327688026,0.3967345693140487
1499369087883,3.0212863355459376,-1.2512397955290453,0.33569848172737693
1499369087899,3.1433585107195086,-1.4953841458761872,0.2746623941404778
1499369087915,3.1433585107195086,-1.6174563210497581,0.15259021896690683
1499369087931,3.1433585107195086,-1.739528496223329,0.15259021896690683
1499369087947,3.0212863355459376,-1.8616006713969,0.2746623941404778
1499369087963,2.7771419851987957,-1.6784924086366573,0.2746623941404778
1499369087979,2.8381780727854675,-1.5564202334630863,0.2746623941404778
1499369087995,3.0823224231326094,-1.4953841458761872,0.33569848172737693
1499369088011,2.9602502479590385,-1.2512397955290453,0.3967345693140487
1499369088027,2.7161058976118966,-1.0070954451819034,0.3967345693140487
1499369088043,2.7771419851987957,-1.0070954451819034,0.33569848172737693
1499369088059,2.8381780727854675,-1.1291676203554744,0.3967345693140487
1499369088075,2.5940337224383256,-0.8850232700083325,0.45777065690094787
1499369088091,2.5940337224383256,-0.7019150072480898,0.5188067444876197
1499369088107,2.7771419851987957,-0.8239871824216607,0.5188067444876197
1499369088123,2.655069810025225,-0.7629510948347615,0.5798428320745188
1499369088139,2.4719615472647547,-0.7019150072480898,0.5798428320745188
1499369088155,2.288853284504512,-0.5188067444876197,0.5188067444876197
1499369088171,2.105745021744042,-0.3967345693140487,0.33569848172737693
1499369088187,1.8616006713969,-0.3967345693140487,0.213626306553806
1499369088203,1.4343480582895154,-0.2746623941404778,0.09155413138023505
1499369088219,1.2512397955290453,-0.2746623941404778,0.09155413138023505
1499369088235,1.3733119707026162,-0.33569848172737693,0.09155413138023505
1499369088251,1.4953841458761872,-0.33569848172737693,0.213626306553806
1499369088267,1.3122758831159445,-0.15259021896690683,0.45777065690094787
1499369088283,1.4343480582895154,0.03051804379333589,0.5188067444876197
1499369088299,1.8005645838102282,0.09155413138023505,0.5188067444876197
1499369088315,1.983672846570471,0.09155413138023505,0.7019150072480898
1499369088331,2.166781109330941,0.15259021896690683,0.8850232700083325
1499369088347,2.227817196917613,0.213626306553806,1.0070954451819034
1499369088363,2.4719615472647547,0.09155413138023505,1.1291676203554744
1499369088379,2.655069810025225,-0.03051804379333589,1.0681315327688026
1499369088395,2.7161058976118966,-0.09155413138023505,1.0070954451819034
1499369088411,2.7161058976118966,-0.213626306553806,0.9460593575952316
1499369088427,2.8381780727854675,-0.5188067444876197,0.8239871824216607
1499369088443,2.9602502479590385,-0.7629510948347615,0.7019150072480898
1499369088459,2.8992141603723667,-0.8850232700083325,0.5798428320745188
1499369088475,2.8381780727854675,-0.9460593575952316,0.3967345693140487
1499369088491,2.7161058976118966,-1.0070954451819034,0.33569848172737693
1499369088507,2.655069810025225,-0.9460593575952316,0.2746623941404778
1499369088523,2.532997634851654,-0.9460593575952316,0.3967345693140487
1499369088539,2.4719615472647547,-0.8850232700083325,0.45777065690094787
1499369088555,2.4719615472647547,-0.7629510948347615,0.5188067444876197
1499369088571,2.532997634851654,-0.5798428320745188,0.6408789196611906
1499369088587,2.4719615472647547,-0.45777065690094787,0.7629510948347615
1499369088603,2.532997634851654,-0.2746623941404778,0.7629510948347615
1499369088619,2.4719615472647547,-0.15259021896690683,0.8850232700083325
1499369088635,2.3498893720911838,-0.15259021896690683,0.9460593575952316
1499369088651,2.410925459678083,-0.15259021896690683,0.8850232700083325
1499369088667,2.288853284504512,-0.213626306553806,0.8850232700083325
1499369088683,2.227817196917613,-0.15259021896690683,0.8850232700083325
1499369088699,2.105745021744042,-0.15259021896690683,0.7629510948347615
1499369088715,1.983672846570471,-0.213626306553806,0.7019150072480898
1499369088732,2.04470893415737,-0.33569848172737693,0.6408789196611906
1499369088748,2.04470893415737,-0.3967345693140487,0.5188067444876197
1499369088764,1.8616006713969,-0.3967345693140487,0.45777065690094787
1499369088780,2.04470893415737,-0.5188067444876197,0.45777065690094787
1499369088796,2.227817196917613,-0.5798428320745188,0.5188067444876197
1499369088812,2.227817196917613,-0.5798428320745188,0.6408789196611906
1499369088828,2.3498893720911838,-0.5188067444876197,0.7629510948347615
1499369088844,2.4719615472647547,-0.3967345693140487,0.7019150072480898
1499369088860,2.4719615472647547,-0.2746623941404778,0.7629510948347615
1499369088876,2.410925459678083,-0.09155413138023505,0.8239871824216607
1499369088892,2.288853284504512,-0.09155413138023505,0.8850232700083325
1499369088908,2.3498893720911838,-0.15259021896690683,0.8850232700083325
1499369088924,2.227817196917613,-0.15259021896690683,0.8239871824216607
1499369088940,2.227817196917613,-0.09155413138023505,0.8239871824216607
1499369088956,2.227817196917613,-0.213626306553806,0.7629510948347615
1499369088972,2.288853284504512,-0.2746623941404778,0.7019150072480898
1499369088988,2.288853284504512,-0.33569848172737693,0.5798428320745188
1499369089004,2.3498893720911838,-0.45777065690094787,0.5798428320745188
1499369089020,2.227817196917613,-0.45777065690094787,0.5188067444876197
1499369089036,2.288853284504512,-0.5188067444876197,0.5188067444876197
1499369089052,2.288853284504512,-0.5188067444876197,0.5188067444876197
1499369089068,2.288853284504512,-0.5798428320745188,0.5188067444876197
1499369089084,2.166781109330941,-0.5188067444876197,0.5188067444876197
1499369089100,2.04470893415737,-0.3967345693140487,0.5188067444876197
1499369089116,1.983672846570471,-0.3967345693140487,0.5188067444876197
1499369089132,2.105745021744042,-0.33569848172737693,0.5188067444876197
1499369089148,2.04470893415737,-0.2746623941404778,0.5188067444876197
1499369089164,1.983672846570471,-0.213626306553806,0.5188067444876197
1499369089180,2.04470893415737,-0.09155413138023505,0.5798428320745188
1499369089196,2.04470893415737,-0.09155413138023505,0.5798428320745188
1499369089212,1.983672846570471,-0.09155413138023505,0.6408789196611906
1499369089228,1.9226367589837992,-0.09155413138023505,0.6408789196611906
1499369089244,1.9226367589837992,-0.15259021896690683,0.6408789196611906
1499369089260,2.04470893415737,-0.213626306553806,0.6408789196611906
1499369089276,2.04470893415737,-0.2746623941404778,0.5188067444876197
1499369089292,1.983672846570471,-0.2746623941404778,0.5188067444876197
1499369089308,2.04470893415737,-0.33569848172737693,0.5188067444876197
1499369089324,2.166781109330941,-0.45777065690094787,0.5798428320745188
1499369089340,2.166781109330941,-0.3967345693140487,0.6408789196611906
1499369089356,2.227817196917613,-0.3967345693140487,0.7019150072480898
1499369089372,2.410925459678083,-0.33569848172737693,0.7019150072480898
1499369089388,2.410925459678083,-0.33569848172737693,0.6408789196611906
1499369089404,2.3498893720911838,-0.33569848172737693,0.6408789196611906
1499369089420,2.410925459678083,-0.33569848172737693,0.6408789196611906
1499369089436,2.288853284504512,-0.33569848172737693,0.5798428320745188
1499369089452,2.166781109330941,-0.45777065690094787,0.5798428320745188
1499369089468,2.105745021744042,-0.3967345693140487,0.6408789196611906
1499369089484,2.105745021744042,-0.45777065690094787,0.6408789196611906
1499369089500,1.983672846570471,-0.3967345693140487,0.45777065690094787
1499369089516,1.8616006713969,-0.45777065690094787,0.3967345693140487
1499369089532,1.983672846570471,-0.5798428320745188,0.2746623941404778
1499369089548,1.9226367589837992,-0.5188067444876197,0.213626306553806
1499369089564,1.9226367589837992,-0.6408789196611906,0.2746623941404778
1499369089580,1.983672846570471,-0.6408789196611906,0.213626306553806
1499369089596,1.9226367589837992,-0.5798428320745188,0.213626306553806
1499369089612,1.8616006713969,-0.6408789196611906,0.2746623941404778
1499369089628,1.8005645838102282,-0.6408789196611906,0.213626306553806
1499369089644,1.739528496223329,-0.45777065690094787,0.15259021896690683
1499369089661,1.9226367589837992,-0.45777065690094787,0.213626306553806
1499369089677,1.8616006713969,-0.33569848172737693,0.2746623941404778
1499369089693,1.983672846570471,-0.213626306553806,0.3967345693140487
1499369089709,2.04470893415737,-0.15259021896690683,0.5188067444876197
1499369089725,1.983672846570471,-0.09155413138023505,0.6408789196611906
1499369089741,1.983672846570471,-0.03051804379333589,0.7019150072480898
1499369089757,2.04470893415737,-0.03051804379333589,0.7629510948347615
1499369089773,2.105745021744042,0.09155413138023505,0.7629510948347615
1499369089789,2.105745021744042,0.09155413138023505,0.7629510948347615
1499369089805,2.105745021744042,-0.03051804379333589,0.7629510948347615
1499369089821,2.04470893415737,-0.15259021896690683,0.6408789196611906
1499369089837,2.04470893415737,-0.33569848172737693,0.5188067444876197
1499369089853,2.166781109330941,-0.45777065690094787,0.5188067444876197
1499369089869,2.105745021744042,-0.3967345693140487,0.5798428320745188
1499369089885,2.166781109330941,-0.45777065690094787,0.5798428320745188
1499369089901,2.288853284504512,-0.3967345693140487,0.5188067444876197
1499369089917,2.288853284504512,-0.2746623941404778,0.5798428320745188
1499369089933,2.227817196917613,-0.213626306553806,0.6408789196611906
1499369089949,2.166781109330941,-0.09155413138023505,0.7019150072480898
1499369089965,2.166781109330941,-0.09155413138023505,0.7629510948347615
1499369089981,2.227817196917613,-0.09155413138023505,0.8239871824216607
1499369089997,2.227817196917613,-0.09155413138023505,0.7629510948347615
1499369090013,2.288853284504512,-0.15259021896690683,0.7629510948347615
1499369090029,2.288853284504512,-0.15259021896690683,0.6408789196611906
1499369090045,2.288853284504512,-0.2746623941404778,0.45777065690094787
1499369090061,2.288853284504512,-0.2746623941404778,0.3967345693140487
1499369090077,2.227817196917613,-0.33569848172737693,0.45777065690094787
1499369090093,2.227817196917613,-0.45777065690094787,0.3967345693140487
1499369090109,2.166781109330941,-0.5188067444876197,0.3967345693140487
1499369090125,2.105745021744042,-0.5188067444876197,0.3967345693140487
1499369090141,2.105745021744042,-0.5798428320745188,0.45777065690094787
1499369090157,1.983672846570471,-0.45777065690094787,0.45777065690094787
1499369090173,2.04470893415737,-0.45777065690094787,0.45777065690094787
1499369090189,2.105745021744042,-0.3967345693140487,0.3967345693140487
1499369090205,2.105745021744042,-0.33569848172737693,0.45777065690094787
1499369090221,1.983672846570471,-0.213626306553806,0.5188067444876197
1499369090237,2.04470893415737,-0.15259021896690683,0.6408789196611906
1499369090253,2.04470893415737,-0.09155413138023505,0.5798428320745188
1499369090269,1.9226367589837992,-0.15259021896690683,0.6408789196611906
1499369090285,1.9226367589837992,-0.213626306553806,0.6408789196611906
1499369090301,1.983672846570471,-0.213626306553806,0.6408789196611906
1499369090317,2.04470893415737,-0.2746623941404778,0.5798428320745188
1499369090333,2.105745021744042,-0.33569848172737693,0.5798428320745188
1499369090349,2.04470893415737,-0.33569848172737693,0.5188067444876197
1499369090365,2.04470893415737,-0.33569848172737693,0.5188067444876197
1499369090381,2.166781109330941,-0.5188067444876197,0.5188067444876197
1499369090397,2.166781109330941,-0.5188067444876197,0.5188067444876197
1499369090413,2.04470893415737,-0.33569848172737693,0.6408789196611906
1499369090429,2.166781109330941,-0.213626306553806,0.6408789196611906
1499369090445,2.227817196917613,-0.213626306553806,0.6408789196611906
1499369090461,2.166781109330941,-0.15259021896690683,0.7019150072480898
1499369090477,2.166781109330941,-0.15259021896690683,0.7019150072480898
1499369090493,2.105745021744042,-0.15259021896690683,0.6408789196611906
1499369090509,2.105745021744042,-0.2746623941404778,0.5188067444876197
1499369090525,2.105745021744042,-0.45777065690094787,0.5188067444876197
1499369090541,2.166781109330941,-0.5188067444876197,0.45777065690094787
1499369090558,2.3498893720911838,-0.6408789196611906,0.45777065690094787
1499369090574,2.3498893720911838,-0.7019150072480898,0.3967345693140487
1499369090590,2.3498893720911838,-0.7019150072480898,0.33569848172737693
1499369090606,2.288853284504512,-0.5798428320745188,0.33569848172737693
1499369090622,2.166781109330941,-0.5798428320745188,0.3967345693140487
1499369090638,2.227817196917613,-0.6408789196611906,0.5188067444876197
1499369090654,2.227817196917613,-0.5188067444876197,0.5798428320745188
1499369090670,2.166781109330941,-0.3967345693140487,0.6408789196611906
1499369090686,2.166781109330941,-0.33569848172737693,0.6408789196611906
1499369090702,2.166781109330941,-0.33569848172737693,0.7019150072480898
1499369090718,2.288853284504512,-0.2746623941404778,0.7629510948347615
1499369090734,2.227817196917613,-0.213626306553806,0.6408789196611906
1499369090750,2.166781109330941,-0.213626306553806,0.7019150072480898
1499369090766,2.105745021744042,-0.213626306553806,0.7019150072480898
1499369090782,1.983672846570471,-0.2746623941404778,0.7019150072480898
1499369090798,2.04470893415737,-0.33569848172737693,0.7019150072480898
1499369090814,1.983672846570471,-0.33569848172737693,0.7019150072480898
1499369090830,1.8005645838102282,-0.2746623941404778,0.6408789196611906
1499369090846,1.8616006713969,-0.2746623941404778,0.6408789196611906
1499369090862,1.6784924086366573,-0.213626306553806,0.5798428320745188
1499369090878,1.8005645838102282,-0.33569848172737693,0.45777065690094787
1499369090894,1.8005645838102282,-0.33569848172737693,0.45777065690094787
1499369090910,1.8616006713969,-0.45777065690094787,0.45777065690094787
1499369090926,2.166781109330941,-0.5798428320745188,0.5188067444876197
1499369090942,2.166781109330941,-0.45777065690094787,0.6408789196611906
1499369090958,2.105745021744042,-0.33569848172737693,0.7019150072480898
1499369090974,2.105745021744042,-0.15259021896690683,0.7629510948347615
1499369090990,2.04470893415737,-0.09155413138023505,0.7629510948347615
1499369091006,2.166781109330941,-0.09155413138023505,0.8239871824216607
1499369091022,2.166781109330941,-0.03051804379333589,0.8239871824216607
1499369091038,2.105745021744042,-0.09155413138023505,0.7019150072480898
1499369091054,2.288853284504512,-0.33569848172737693,0.5798428320745188
1499369091070,2.288853284504512,-0.33569848172737693,0.6408789196611906
1499369091086,2.3498893720911838,-0.3967345693140487,0.5188067444876197
1499369091102,2.3498893720911838,-0.3967345693140487,0.45777065690094787
1499369091118,2.227817196917613,-0.45777065690094787,0.33569848172737693
1499369091134,2.227817196917613,-0.5798428320745188,0.3967345693140487
1499369091150,2.04470893415737,-0.5188067444876197,0.45777065690094787
1499369091166,2.04470893415737,-0.3967345693140487,0.45777065690094787
1499369091182,2.04470893415737,-0.45777065690094787,0.45777065690094787
1499369091198,2.04470893415737,-0.33569848172737693,0.5798428320745188
1499369091214,2.04470893415737,-0.2746623941404778,0.6408789196611906
1499369091230,2.04470893415737,-0.2746623941404778,0.6408789196611906
1499369091246,2.04470893415737,-0.2746623941404778,0.5798428320745188
1499369091262,2.166781109330941,-0.213626306553806,0.5798428320745188
1499369091278,2.04470893415737,-0.09155413138023505,0.6408789196611906
1499369091294,2.04470893415737,-0.09155413138023505,0.5188067444876197
1499369091310,1.983672846570471,-0.15259021896690683,0.5798428320745188
1499369091326,1.983672846570471,-0.213626306553806,0.6408789196611906
1499369091342,2.04470893415737,-0.2746623941404778,0.5798428320745188
1499369091358,1.983672846570471,-0.213626306553806,0.6408789196611906
1499369091374,1.9226367589837992,-0.15259021896690683,0.5798428320745188
1499369091390,1.9226367589837992,-0.213626306553806,0.5798428320745188
1499369091406,2.04470893415737,-0.2746623941404778,0.5188067444876197
1499369091422,2.227817196917613,-0.2746623941404778,0.45777065690094787
1499369091438,2.166781109330941,-0.33569848172737693,0.45777065690094787
1499369091454,2.105745021744042,-0.5188067444876197,0.45777065690094787
1499369091470,2.3498893720911838,-0.5798428320745188,0.5798428320745188
1499369091486,2.3498893720911838,-0.3967345693140487,0.6408789196611906
1499369091502,2.105745021744042,-0.15259021896690683,0.7019150072480898
1499369091519,2.166781109330941,-0.09155413138023505,0.7019150072480898
1499369091535,2.227817196917613,-0.09155413138023505,0.6408789196611906
1499369091551,2.105745021744042,-0.03051804379333589,0.5798428320745188
1499369091567,1.983672846570471,-0.03051804379333589,0.5798428320745188
1499369091583,1.8616006713969,-0.09155413138023505,0.5188067444876197
1499369091599,1.8616006713969,-0.2746623941404778,0.45777065690094787
1499369091615,1.9226367589837992,-0.3967345693140487,0.33569848172737693
1499369091631,1.983672846570471,-0.3967345693140487,0.2746623941404778
1499369091647,2.105745021744042,-0.5188067444876197,0.2746623941404778
1499369091663,2.04470893415737,-0.5798428320745188,0.213626306553806
1499369091679,2.105745021744042,-0.5798428320745188,0.213626306553806
1499369091695,1.983672846570471,-0.3967345693140487,0.2746623941404778
1499369091711,2.105745021744042,-0.33569848172737693,0.2746623941404778
1499369091727,2.105745021744042,-0.3967345693140487,0.2746623941404778
1499369091743,1.9226367589837992,-0.33569848172737693,0.3967345693140487
1499369091759,2.105745021744042,-0.3967345693140487,0.45777065690094787
1499369091775,2.227817196917613,-0.3967345693140487,0.45777065690094787
1499369091791,2.04470893415737,-0.2746623941404778,0.5188067444876197
1499369091807,2.105745021744042,-0.33569848172737693,0.3967345693140487
1499369091823,2.105745021744042,-0.2746623941404778,0.3967345693140487
1499369091839,1.9226367589837992,-0.2746623941404778,0.33569848172737693
1499369091855,1.8616006713969,-0.33569848172737693,0.33569848172737693
1499369091871,1.8005645838102282,-0.33569848172737693,0.33569848172737693
1499369091887,1.8616006713969,-0.33569848172737693,0.33569848172737693
1499369091903,1.8616006713969,-0.2746623941404778,0.33569848172737693
1499369091919,1.8005645838102282,-0.213626306553806,0.3967345693140487
1499369091935,1.8005645838102282,-0.15259021896690683,0.3967345693140487
1499369091951,1.8616006713969,-0.09155413138023505,0.3967345693140487
1499369091967,2.04470893415737,-0.213626306553806,0.45777065690094787
1499369091983,2.105745021744042,-0.33569848172737693,0.45777065690094787
1499369091999,2.04470893415737,-0.33569848172737693,0.3967345693140487
1499369092015,2.166781109330941,-0.45777065690094787,0.3967345693140487
1499369092031,2.3498893720911838,-0.5188067444876197,0.45777065690094787
1499369092047,2.3498893720911838,-0.45777065690094787,0.45777065690094787
1499369092063,2.3498893720911838,-0.45777065690094787,0.5188067444876197
1499369092079,2.410925459678083,-0.3967345693140487,0.5798428320745188
1499369092095,2.3498893720911838,-0.3967345693140487,0.5798428320745188
1499369092111,2.4719615472647547,-0.33569848172737693,0.5188067444876197
1499369092127,2.410925459678083,-0.2746623941404778,0.5798428320745188
1499369092143,2.3498893720911838,-0.213626306553806,0.5798428320745188
1499369092159,2.3498893720911838,-0.33569848172737693,0.5798428320745188
1499369092175,2.288853284504512,-0.3967345693140487,0.5798428320745188
1499369092191,2.288853284504512,-0.33569848172737693,0.5188067444876197
1499369092207,2.227817196917613,-0.3967345693140487,0.45777065690094787
1499369092223,2.227817196917613,-0.3967345693140487,0.45777065690094787
1499369092239,2.166781109330941,-0.3967345693140487,0.3967345693140487
1499369092255,2.166781109330941,-0.45777065690094787,0.3967345693140487
1499369092271,2.04470893415737,-0.45777065690094787,0.3967345693140487
1499369092287,2.04470893415737,-0.3967345693140487,0.45777065690094787
1499369092303,2.04470893415737,-0.5188067444876197,0.45777065690094787
1499369092319,2.105745021744042,-0.45777065690094787,0.5188067444876197
1499369092335,2.105745021744042,-0.3967345693140487,0.5188067444876197
1499369092351,2.105745021744042,-0.33569848172737693,0.5188067444876197
1499369092367,2.227817196917613,-0.2746623941404778,0.45777065690094787
1499369092383,2.105745021744042,-0.213626306553806,0.5798428320745188
1499369092399,2.166781109330941,-0.213626306553806,0.5798428320745188
1499369092415,2.227817196917613,-0.213626306553806,0.6408789196611906
1499369092431,2.166781109330941,-0.2746623941404778,0.7019150072480898
1499369092448,2.227817196917613,-0.213626306553806,0.7019150072480898
1499369092464,2.105745021744042,-0.213626306553806,0.6408789196611906
1499369092480,2.166781109330941,-0.15259021896690683,0.5798428320745188
1499369092496,2.166781109330941,-0.213626306553806,0.45777065690094787
1499369092512,2.105745021744042,-0.2746623941404778,0.45777065690094787
1499369092528,2.105745021744042,-0.33569848172737693,0.45777065690094787
1499369092544,2.105745021744042,-0.3967345693140487,0.5798428320745188
1499369092560,2.166781109330941,-0.5188067444876197,0.5798428320745188
1499369092576,2.105745021744042,-0.3967345693140487,0.45777065690094787
1499369092592,1.983672846570471,-0.33569848172737693,0.3967345693140487
1499369092608,2.105745021744042,-0.3967345693140487,0.45777065690094787
1499369092624,2.105745021744042,-0.3967345693140487,0.5188067444876197
1499369092640,2.105745021744042,-0.33569848172737693,0.6408789196611906
1499369092656,2.166781109330941,-0.213626306553806,0.7019150072480898
1499369092672,2.166781109330941,-0.15259021896690683,0.7019150072480898
1499369092688,2.166781109330941,-0.03051804379333589,0.7019150072480898
1499369092704,2.166781109330941,0.03051804379333589,0.7019150072480898
1499369092720,2.105745021744042,-0.09155413138023505,0.7019150072480898
1499369092736,2.04470893415737,-0.15259021896690683,0.7019150072480898
1499369092752,1.9226367589837992,-0.15259021896690683,0.7019150072480898
1499369092768,2.04470893415737,-0.15259021896690683,0.7019150072480898
1499369092784,2.105745021744042,-0.213626306553806,0.7019150072480898
1499369092800,2.227817196917613,-0.213626306553806,0.6408789196611906
1499369092816,2.288853284504512,-0.2746623941404778,0.7019150072480898
1499369092832,2.4719615472647547,-0.33569848172737693,0.6408789196611906
1499369092848,2.532997634851654,-0.45777065690094787,0.6408789196611906
1499369092864,2.5940337224383256,-0.45777065690094787,0.6408789196611906
1499369092880,2.5940337224383256,-0.5188067444876197,0.7019150072480898
1499369092896,2.532997634851654,-0.45777065690094787,0.7629510948347615
1499369092912,2.4719615472647547,-0.3967345693140487,0.7629510948347615
1499369092928,2.410925459678083,-0.3967345693140487,0.7019150072480898
1499369092944,2.288853284504512,-0.3967345693140487,0.6408789196611906
1499369092960,2.227817196917613,-0.33569848172737693,0.5798428320745188
1499369092976,2.166781109330941,-0.213626306553806,0.5798428320745188
1499369092992,2.04470893415737,-0.213626306553806,0.5188067444876197
1499369093008,1.983672846570471,-0.2746623941404778,0.5188067444876197
1499369093024,2.04470893415737,-0.3967345693140487,0.45777065690094787
1499369093040,2.04470893415737,-0.3967345693140487,0.45777065690094787
1499369093056,1.9226367589837992,-0.33569848172737693,0.3967345693140487
1499369093072,1.8616006713969,-0.33569848172737693,0.33569848172737693
1499369093088,1.8616006713969,-0.33569848172737693,0.3967345693140487
1499369093104,1.8005645838102282,-0.2746623941404778,0.3967345693140487
1499369093120,1.739528496223329,-0.213626306553806,0.3967345693140487
1499369093136,1.6784924086366573,-0.2746623941404778,0.45777065690094787
1499369093152,1.739528496223329,-0.213626306553806,0.45777065690094787
1499369093168,1.8005645838102282,-0.15259021896690683,0.5188067444876197
1499369093184,1.8005645838102282,-0.213626306553806,0.45777065690094787
1499369093200,2.04470893415737,-0.2746623941404778,0.3967345693140487
1499369093216,2.227817196917613,-0.33569848172737693,0.45777065690094787
1499369093232,2.105745021744042,-0.3967345693140487,0.5798428320745188
1499369093248,2.227817196917613,-0.2746623941404778,0.6408789196611906
1499369093264,2.410925459678083,-0.2746623941404778,0.7019150072480898
1499369093280,2.3498893720911838,-0.213626306553806,0.5798428320745188
1499369093296,2.3498893720911838,-0.2746623941404778,0.5798428320745188
1499369093312,2.288853284504512,-0.213626306553806,0.5798428320745188
1499369093328,2.166781109330941,-0.2746623941404778,0.5798428320745188
1499369093345,2.166781109330941,-0.3967345693140487,0.5798428320745188
1499369093361,2.105745021744042,-0.45777065690094787,0.5188067444876197
1499369093377,2.288853284504512,-0.5798428320745188,0.5188067444876197
1499369093393,2.3498893720911838,-0.5798428320745188,0.45777065690094787
1499369093409,2.3498893720911838,-0.6408789196611906,0.33569848172737693
1499369093425,2.410925459678083,-0.6408789196611906,0.33569848172737693
1499369093441,2.3498893720911838,-0.5798428320745188,0.2746623941404778
1499369093457,2.288853284504512,-0.5798428320745188,0.3967345693140487
1499369093473,2.227817196917613,-0.5798428320745188,0.5188067444876197
1499369093489,2.04470893415737,-0.45777065690094787,0.5188067444876197
1499369093505,2.04470893415737,-0.33569848172737693,0.6408789196611906
1499369093521,1.983672846570471,-0.2746623941404778,0.5798428320745188
1499369093537,1.983672846570471,-0.213626306553806,0.5798428320745188
1499369093553,2.105745021744042,-0.15259021896690683,0.5798428320745188
1499369093569,2.04470893415737,-0.15259021896690683,0.5798428320745188
1499369093585,2.04470893415737,-0.15259021896690683,0.6408789196611906
1499369093601,2.105745021744042,-0.15259021896690683,0.6408789196611906
1499369093617,2.105745021744042,-0.213626306553806,0.7019150072480898
1499369093633,2.04470893415737,-0.2746623941404778,0.7019150072480898
1499369093649,1.983672846570471,-0.2746623941404778,0.5798428320745188
1499369093665,1.9226367589837992,-0.213626306553806,0.5188067444876197
1499369093681,2.04470893415737,-0.2746623941404778,0.5188067444876197
1499369093697,1.983672846570471,-0.213626306553806,0.45777065690094787
1499369093713,1.983672846570471,-0.213626306553806,0.45777065690094787
1499369093729,2.04470893415737,-0.2746623941404778,0.5188067444876197
1499369093745,1.983672846570471,-0.213626306553806,0.5798428320745188
1499369093761,2.105745021744042,-0.213626306553806,0.6408789196611906
1499369093777,2.166781109330941,-0.213626306553806,0.7019150072480898
1499369093793,2.105745021744042,-0.15259021896690683,0.6408789196611906
1499369093809,2.288853284504512,-0.33569848172737693,0.7629510948347615
1499369093825,2.532997634851654,-0.45777065690094787,0.7629510948347615
1499369093841,2.4719615472647547,-0.45777065690094787,0.8239871824216607
1499369093857,2.532997634851654,-0.3967345693140487,0.8239871824216607
1499369093873,2.532997634851654,-0.45777065690094787,0.8239871824216607
1499369093889,2.3498893720911838,-0.3967345693140487,0.7019150072480898
1499369093905,2.227817196917613,-0.33569848172737693,0.6408789196611906
1499369093921,2.166781109330941,-0.3967345693140487,0.5798428320745188
1499369093937,2.04470893415737,-0.33569848172737693,0.45777065690094787
1499369093953,1.983672846570471,-0.3967345693140487,0.45777065690094787
1499369093969,2.04470893415737,-0.45777065690094787,0.3967345693140487
1499369093985,2.166781109330941,-0.5188067444876197,0.33569848172737693
1499369094001,2.105745021744042,-0.45777065690094787,0.33569848172737693
1499369094017,2.04470893415737,-0.45777065690094787,0.3967345693140487
1499369094033,2.166781109330941,-0.5798428320745188,0.45777065690094787
1499369094049,2.04470893415737,-0.45777065690094787,0.45777065690094787
1499369094065,1.9226367589837992,-0.3967345693140487,0.5188067444876197
1499369094081,2.04470893415737,-0.33569848172737693,0.5188067444876197
1499369094097,1.983672846570471,-0.3967345693140487,0.5188067444876197
1499369094113,1.9226367589837992,-0.3967345693140487,0.45777065690094787
1499369094129,1.9226367589837992,-0.33569848172737693,0.45777065690094787
1499369094145,1.9226367589837992,-0.33569848172737693,0.5188067444876197
1499369094161,1.9226367589837992,-0.33569848172737693,0.45777065690094787
1499369094177,1.8616006713969,-0.2746623941404778,0.5188067444876197
1499369094193,1.8616006713969,-0.213626306553806,0.5188067444876197
1499369094209,1.9226367589837992,-0.15259021896690683,0.5188067444876197
1499369094225,1.8005645838102282,-0.15259021896690683,0.5798428320745188
1499369094241,1.9226367589837992,-0.213626306553806,0.5798428320745188
1499369094257,1.9226367589837992,-0.213626306553806,0.5798428320745188
1499369094273,1.8616006713969,-0.33569848172737693,0.5798428320745188
1499369094290,1.9226367589837992,-0.213626306553806,0.5798428320745188
1499369094306,1.9226367589837992,-0.213626306553806,0.5188067444876197
1499369094322,1.8616006713969,-0.213626306553806,0.5188067444876197
1499369094338,1.8616006713969,-0.213626306553806,0.5188067444876197
1499369094354,1.8616006713969,-0.213626306553806,0.5188067444876197
1499369094370,1.983672846570471,-0.2746623941404778,0.45777065690094787
1499369094386,1.9226367589837992,-0.33569848172737693,0.3967345693140487
1499369094402,1.8616006713969,-0.33569848172737693,0.45777065690094787
1499369094418,2.166781109330941,-0.45777065690094787,0.5188067444876197
1499369094434,2.410925459678083,-0.33569848172737693,0.5798428320745188
1499369094450,2.227817196917613,-0.2746623941404778,0.7629510948347615
1499369094466,2.166781109330941,-0.15259021896690683,0.8239871824216607
1499369094482,2.288853284504512,-0.09155413138023505,0.7019150072480898
1499369094498,2.227817196917613,-0.03051804379333589,0.7629510948347615
1499369094514,2.227817196917613,-0.09155413138023505,0.7019150072480898
1499369094530,2.166781109330941,-0.09155413138023505,0.5798428320745188
1499369094546,2.105745021744042,-0.2746623941404778,0.5798428320745188
1499369094562,2.166781109330941,-0.45777065690094787,0.5188067444876197
1499369094578,2.105745021744042,-0.45777065690094787,0.45777065690094787
1499369094594,2.105745021744042,-0.3967345693140487,0.45777065690094787
1499369094610,2.04470893415737,-0.3967345693140487,0.3967345693140487
1499369094626,2.105745021744042,-0.5188067444876197,0.33569848172737693
1499369094642,2.105745021744042,-0.45777065690094787,0.33569848172737693
1499369094658,1.8616006713969,-0.3967345693140487,0.3967345693140487
1499369094674,2.04470893415737,-0.3967345693140487,0.5188067444876197
1499369094690,2.04470893415737,-0.45777065690094787,0.5188067444876197
1499369094706,1.9226367589837992,-0.3967345693140487,0.5188067444876197
1499369094722,1.9226367589837992,-0.3967345693140487,0.45777065690094787
1499369094738,1.983672846570471,-0.33569848172737693,0.3967345693140487
1499369094754,2.04470893415737,-0.33569848172737693,0.45777065690094787
1499369094770,2.105745021744042,-0.33569848172737693,0.5188067444876197
1499369094786,1.983672846570471,-0.213626306553806,0.5798428320745188
1499369094802,1.9226367589837992,-0.213626306553806,0.6408789196611906
1499369094818,1.9226367589837992,-0.15259021896690683,0.5798428320745188
1499369094834,1.983672846570471,-0.15259021896690683,0.5798428320745188
1499369094850,2.04470893415737,-0.213626306553806,0.5798428320745188
1499369094866,2.105745021744042,-0.2746623941404778,0.5188067444876197
1499369094882,2.166781109330941,-0.2746623941404778,0.6408789196611906
1499369094898,2.166781109330941,-0.2746623941404778,0.5798428320745188
1499369094914,2.105745021744042,-0.2746623941404778,0.5798428320745188
1499369094930,2.04470893415737,-0.33569848172737693,0.45777065690094787
1499369094946,2.166781109330941,-0.33569848172737693,0.5188067444876197
1499369094962,2.04470893415737,-0.2746623941404778,0.45777065690094787
1499369094978,1.9226367589837992,-0.33569848172737693,0.5188067444876197
1499369094994,2.04470893415737,-0.45777065690094787,0.45777065690094787
1499369095010,2.166781109330941,-0.3967345693140487,0.5188067444876197
1499369095026,2.04470893415737,-0.2746623941404778,0.5798428320745188
1499369095042,1.9226367589837992,-0.09155413138023505,0.6408789196611906
1499369095058,2.105745021744042,-0.09155413138023505,0.5798428320745188
1499369095074,2.04470893415737,-0.09155413138023505,0.5188067444876197
1499369095090,1.983672846570471,-0.09155413138023505,0.5188067444876197
1499369095106,1.8616006713969,-0.09155413138023505,0.5188067444876197
1499369095122,1.6784924086366573,-0.15259021896690683,0.3967345693140487
1499369095138,1.8005645838102282,-0.33569848172737693,0.33569848172737693
1499369095154,1.8616006713969,-0.45777065690094787,0.2746623941404778
1499369095170,1.983672846570471,-0.5188067444876197,0.213626306553806
1499369095186,1.9226367589837992,-0.5188067444876197,0.213626306553806
1499369095202,1.9226367589837992,-0.6408789196611906,0.15259021896690683
1499369095219,2.105745021744042,-0.6408789196611906,0.213626306553806
1499369095235,2.04470893415737,-0.5798428320745188,0.2746623941404778
1499369095251,2.04470893415737,-0.3967345693140487,0.3967345693140487
1499369095267,2.04470893415737,-0.3967345693140487,0.5188067444876197
1499369095283,2.105745021744042,-0.33569848172737693,0.6408789196611906
1499369095299,2.166781109330941,-0.2746623941404778,0.7019150072480898
1499369095315,2.166781109330941,-0.213626306553806,0.7629510948347615
1499369095331,2.288853284504512,-0.15259021896690683,0.7019150072480898
1499369095347,2.3498893720911838,-0.15259021896690683,0.7019150072480898
1499369095363,2.3498893720911838,-0.15259021896690683,0.7629510948347615
1499369095379,2.288853284504512,-0.213626306553806,0.7019150072480898
1499369095395,2.166781109330941,-0.213626306553806,0.5798428320745188
1499369095411,2.04470893415737,-0.213626306553806,0.5798428320745188
1499369095427,2.04470893415737,-0.213626306553806,0.5798428320745188
1499369095443,1.983672846570471,-0.213626306553806,0.5188067444876197
1499369095459,1.983672846570471,-0.213626306553806,0.45777065690094787
1499369095475,1.983672846570471,-0.2746623941404778,0.3967345693140487
1499369095491,1.9226367589837992,-0.213626306553806,0.33569848172737693
1499369095507,1.8616006713969,-0.15259021896690683,0.33569848172737693
1499369095523,1.8616006713969,-0.2746623941404778,0.45777065690094787
1499369095539,1.983672846570471,-0.33569848172737693,0.45777065690094787
1499369095555,1.983672846570471,-0.2746623941404778,0.45777065690094787
1499369095571,1.9226367589837992,-0.2746623941404778,0.3967345693140487
1499369095587,2.04470893415737,-0.3967345693140487,0.3967345693140487
1499369095603,2.288853284504512,-0.45777065690094787,0.3967345693140487
1499369095619,2.04470893415737,-0.2746623941404778,0.45777065690094787
1499369095635,1.983672846570471,-0.213626306553806,0.5798428320745188
1499369095651,2.166781109330941,-0.213626306553806,0.45777065690094787
1499369095667,2.105745021744042,-0.213626306553806,0.5188067444876197
1499369095683,2.04470893415737,-0.15259021896690683,0.45777065690094787
1499369095699,1.9226367589837992,-0.213626306553806,0.45777065690094787
1499369095715,1.9226367589837992,-0.33569848172737693,0.3967345693140487
1499369095731,1.983672846570471,-0.5188067444876197,0.33569848172737693
1499369095747,1.9226367589837992,-0.45777065690094787,0.2746623941404778
1499369095763,1.983672846570471,-0.45777065690094787,0.213626306553806
1499369095779,2.04470893415737,-0.5188067444876197,0.213626306553806
1499369095795,2.04470893415737,-0.5798428320745188,0.213626306553806
1499369095811,2.166781109330941,-0.5798428320745188,0.213626306553806
1499369095827,2.166781109330941,-0.5798428320745188,0.2746623941404778
1499369095843,2.166781109330941,-0.5188067444876197,0.33569848172737693
1499369095859,2.227817196917613,-0.5188067444876197,0.3967345693140487
1499369095875,2.227817196917613,-0.3967345693140487,0.45777065690094787
1499369095891,2.288853284504512,-0.3967345693140487,0.45777065690094787
1499369095907,2.3498893720911838,-0.33569848172737693,0.5188067444876197
1499369095923,2.3498893720911838,-0.2746623941404778,0.5798428320745188
1499369095939,2.288853284504512,-0.213626306553806,0.5188067444876197
1499369095955,2.227817196917613,-0.15259021896690683,0.5798428320745188
1499369095971,2.227817196917613,-0.09155413138023505,0.7019150072480898
1499369095987,2.166781109330941,-0.03051804379333589,0.7019150072480898
1499369096003,2.166781109330941,-0.09155413138023505,0.6408789196611906
1499369096019,2.166781109330941,-0.15259021896690683,0.6408789196611906
1499369096035,2.04470893415737,-0.09155413138023505,0.5798428320745188
1499369096051,2.105745021744042,-0.213626306553806,0.5188067444876197
1499369096067,2.105745021744042,-0.2746623941404778,0.45777065690094787
1499369096083,2.04470893415737,-0.33569848172737693,0.45777065690094787
1499369096099,2.105745021744042,-0.2746623941404778,0.3967345693140487
1499369096115,2.166781109330941,-0.3967345693140487,0.45777065690094787
1499369096131,2.166781109330941,-0.3967345693140487,0.45777065690094787
1499369096147,2.166781109330941,-0.45777065690094787,0.3967345693140487
1499369096164,2.04470893415737,-0.3967345693140487,0.33569848172737693
1499369096180,2.227817196917613,-0.3967345693140487,0.33569848172737693
1499369096196,2.288853284504512,-0.3967345693140487,0.3967345693140487
1499369096212,2.04470893415737,-0.2746623941404778,0.5798428320745188
1499369096228,2.227817196917613,-0.2746623941404778,0.7019150072480898
1499369096244,2.410925459678083,-0.2746623941404778,0.6408789196611906
1499369096260,2.3498893720911838,-0.213626306553806,0.5798428320745188
1499369096276,2.3498893720911838,-0.2746623941404778,0.5798428320745188
1499369096292,2.227817196917613,-0.213626306553806,0.5188067444876197
1499369096308,2.105745021744042,-0.33569848172737693,0.5188067444876197
1499369096324,2.166781109330941,-0.3967345693140487,0.45777065690094787
1499369096340,2.166781109330941,-0.45777065690094787,0.45777065690094787
1499369096356,2.105745021744042,-0.45777065690094787,0.3967345693140487
1499369096372,1.9226367589837992,-0.3967345693140487,0.33569848172737693
1499369096388,2.105745021744042,-0.45777065690094787,0.213626306553806
1499369096404,2.227817196917613,-0.5188067444876197,0.213626306553806
1499369096420,2.105745021744042,-0.5798428320745188,0.2746623941404778
1499369096436,2.105745021744042,-0.5798428320745188,0.33569848172737693
1499369096452,2.3498893720911838,-0.6408789196611906,0.33569848172737693
1499369096468,2.166781109330941,-0.5188067444876197,0.33569848172737693
1499369096484,2.105745021744042,-0.3967345693140487,0.33569848172737693
1499369096500,2.227817196917613,-0.45777065690094787,0.2746623941404778
1499369096516,2.227817196917613,-0.3967345693140487,0.2746623941404778
1499369096532,2.105745021744042,-0.3967345693140487,0.33569848172737693
1499369096548,1.983672846570471,-0.33569848172737693,0.3967345693140487
1499369096564,1.983672846570471,-0.2746623941404778,0.5188067444876197
1499369096580,1.983672846570471,-0.2746623941404778,0.5798428320745188
1499369096596,1.983672846570471,-0.213626306553806,0.5798428320745188
1499369096612,1.983672846570471,-0.09155413138023505,0.5188067444876197
1499369096628,1.983672846570471,-0.09155413138023505,0.5188067444876197
1499369096644,2.04470893415737,-0.15259021896690683,0.5798428320745188
1499369096660,2.105745021744042,-0.15259021896690683,0.5798428320745188
1499369096676,2.105745021744042,-0.15259021896690683,0.6408789196611906
1499369096692,2.04470893415737,-0.213626306553806,0.5798428320745188
1499369096708,2.04470893415737,-0.2746623941404778,0.5798428320745188
1499369096724,2.04470893415737,-0.3967345693140487,0.5188067444876197
1499369096740,2.166781109330941,-0.45777065690094787,0.45777065690094787
1499369096756,2.227817196917613,-0.45777065690094787,0.45777065690094787
1499369096772,2.04470893415737,-0.3967345693140487,0.3967345693140487
1499369096788,2.166781109330941,-0.5188067444876197,0.45777065690094787
1499369096804,2.410925459678083,-0.6408789196611906,0.5798428320745188
1499369096820,2.288853284504512,-0.5798428320745188,0.6408789196611906
1499369096836,1.8616006713969,-0.213626306553806,0.7629510948347615
1499369096852,2.105745021744042,-0.09155413138023505,0.6408789196611906
1499369096868,1.8005645838102282,0.33569848172737693,0.7019150072480898
1499369096884,1.4343480582895154,1.0070954451819034,0.7629510948347615
1499369096900,1.4343480582895154,1.3733119707026162,0.7629510948347615
1499369096916,0.8850232700083325,2.04470893415737,0.6408789196611906
1499369096932,1.6784924086366573,2.8381780727854675,0.3967345693140487
1499369096948,2.04470893415737,3.692683299000464,0.2746623941404778
1499369096964,1.8005645838102282,3.3264667734797513,0.45777065690094787
1499369096980,1.4953841458761872,3.997863736934505,1.4343480582895154
1499369096996,0.45777065690094787,4.486152437628789,1.739528496223329
1499369097012,3.5095750362402214,4.60822461280236,0.45777065690094787
1499369097028,6.073090714885211,4.60822461280236,-0.33569848172737693
1499369097044,3.692683299000464,6.073090714885211,-0.45777065690094787
1499369097061,3.7537193865873633,6.8665598535133086,-1.0681315327688026
1499369097077,6.622415503166167,5.95101853971164,-1.3122758831159445
1499369097093,6.012054627298312,5.462729839017356,-0.8850232700083325
1499369097109,3.5095750362402214,5.645838101777599,-0.8239871824216607
1499369097125,4.547188525215461,6.256198977645454,-1.8005645838102282
1499369097141,5.523765926604028,5.95101853971164,-2.5940337224383256
1499369097157,5.2185854886702145,4.974441138323073,-3.4485389486533222
1499369097173,4.730296787975931,4.242008087281647,-4.180971999694748
1499369097189,3.875791561760934,3.936827649347606,-4.119935912108076
1499369097205,1.6174563210497581,3.4485389486533222,-3.6316472114137923
1499369097221,1.1902037079423735,2.410925459678083,-3.1433585107195086
1499369097237,2.166781109330941,1.5564202334630863,-2.4719615472647547
1499369097253,2.288853284504512,1.1902037079423735,-1.8005645838102282
1499369097269,3.7537193865873633,0.5188067444876197,-1.1291676203554744
1499369097285,3.936827649347606,0.7019150072480898,-0.45777065690094787
1499369097301,4.364080262455218,0.7629510948347615,0.213626306553806
1499369097317,4.730296787975931,0.6408789196611906,0.8239871824216607
1499369097333,4.486152437628789,0.33569848172737693,1.4953841458761872
1499369097349,3.692683299000464,0.3967345693140487,2.288853284504512
1499369097365,3.0823224231326094,0.7019150072480898,2.655069810025225
1499369097381,4.058899824521177,0.33569848172737693,2.8381780727854675
1499369097397,4.547188525215461,0.2746623941404778,2.9602502479590385
1499369097413,5.0354772259097444,0.3967345693140487,3.1433585107195086
1499369097429,6.195162890058782,0.213626306553806,3.3264667734797513
1499369097445,6.256198977645454,0.15259021896690683,3.7537193865873633
1499369097461,6.561379415579495,-0.09155413138023505,4.058899824521177
1499369097477,7.11070420386045,-0.33569848172737693,4.364080262455218
1499369097493,7.17174029144735,-0.3967345693140487,4.486152437628789
1499369097509,7.2938124666209205,-0.33569848172737693,4.791332875562603
1499369097525,6.683451590753066,0.15259021896690683,5.2185854886702145
1499369097541,6.073090714885211,0.3967345693140487,5.645838101777599
1499369097557,5.2185854886702145,0.5798428320745188,5.95101853971164
1499369097573,4.669260700389032,0.5798428320745188,6.012054627298312
1499369097589,4.364080262455218,0.3967345693140487,6.134126802471883
1499369097605,3.570611123826893,0.33569848172737693,5.706874189364498
1499369097621,4.303044174868319,-0.213626306553806,4.058899824521177
1499369097637,5.157549401083315,0.2746623941404778,2.7771419851987957
1499369097653,3.570611123826893,1.1291676203554744,2.227817196917613
1499369097669,1.3122758831159445,1.6174563210497581,2.105745021744042
1499369097685,2.7771419851987957,0.33569848172737693,1.4953841458761872
1499369097701,6.439307240405924,-0.8850232700083325,1.4953841458761872
1499369097717,7.232776379034021,-1.1902037079423735,1.983672846570471
1499369097733,5.95101853971164,-0.7629510948347615,3.0823224231326094
1499369097749,5.828946364538069,-1.0681315327688026,3.936827649347606
1499369097765,6.012054627298312,-1.3733119707026162,4.791332875562603
1499369097781,5.76791027695117,-1.5564202334630863,5.584802014190927
1499369097797,6.439307240405924,-1.6174563210497581,6.256198977645454
1499369097813,6.9886320286868795,-1.1291676203554744,7.049668116273779
1499369097829,7.17174029144735,-0.6408789196611906,7.476920729381163
1499369097845,7.232776379034021,-0.5798428320745188,7.904173342488775
1499369097861,7.904173342488775,-0.5188067444876197,8.087281605249018
1499369097877,8.697642481116873,-0.6408789196611906,8.270389868009488
1499369097893,8.697642481116873,-0.8239871824216607,8.697642481116873
1499369097909,9.246967269398056,-1.1902037079423735,8.819714656290444
1499369097925,8.758678568703772,-1.739528496223329,8.941786831464015
1499369097941,7.904173342488775,-2.04470893415737,8.880750743877343
1499369097957,6.744487678339738,-2.410925459678083,8.697642481116873
1499369097973,5.523765926604028,-2.3498893720911838,8.392462043183059
1499369097990,5.2185854886702145,-2.410925459678083,7.721065079728305
1499369098006,4.974441138323073,-2.166781109330941,6.9886320286868795
1499369098022,5.462729839017356,-2.288853284504512,6.134126802471883
1499369098038,5.645838101777599,-2.410925459678083,5.523765926604028
1499369098054,5.401693751430457,-2.4719615472647547,4.547188525215461
1499369098070,7.476920729381163,-2.8992141603723667,2.7771419851987957
1499369098086,6.195162890058782,-2.4719615472647547,2.7771419851987957
1499369098102,3.7537193865873633,-2.105745021744042,2.410925459678083
1499369098118,3.3264667734797513,-2.655069810025225,1.5564202334630863
1499369098134,3.4485389486533222,-2.7771419851987957,1.0681315327688026
1499369098150,2.288853284504512,-2.410925459678083,0.7629510948347615
1499369098166,0.9460593575952316,-2.410925459678083,0.213626306553806
1499369098182,0.5188067444876197,-2.3498893720911838,-0.5188067444876197
1499369098198,-0.03051804379333589,-1.983672846570471,-1.1291676203554744
1499369098214,-0.03051804379333589,-2.04470893415737,-1.5564202334630863
1499369098230,-0.2746623941404778,-2.166781109330941,-1.6784924086366573
1499369098246,-1.0681315327688026,-2.4719615472647547,-1.6784924086366573
1499369098262,-1.8616006713969,-3.0823224231326094,-1.8616006713969
1499369098278,-1.6174563210497581,-3.0823224231326094,-2.410925459678083
1499369098294,-0.8850232700083325,-2.7161058976118966,-2.7161058976118966
1499369098310,-0.8850232700083325,-2.410925459678083,-2.5940337224383256
1499369098326,-0.7629510948347615,-2.4719615472647547,-2.3498893720911838
1499369098342,-0.2746623941404778,-2.5940337224383256,-2.04470893415737
1499369098358,0.213626306553806,-2.7771419851987957,-1.6784924086366573
1499369098374,0.45777065690094787,-2.655069810025225,-1.1291676203554744
1499369098390,0.5798428320745188,-2.532997634851654,-0.5798428320745188
1499369098406,1.1902037079423735,-2.532997634851654,-0.09155413138023505
1499369098422,1.5564202334630863,-2.4719615472647547,0.5798428320745188
1499369098438,2.227817196917613,-2.288853284504512,1.2512397955290453
1499369098454,2.5940337224383256,-1.9226367589837992,1.8616006713969
1499369098470,2.9602502479590385,-1.6174563210497581,2.4719615472647547
1499369098486,3.1433585107195086,-1.2512397955290453,3.0212863355459376
1499369098502,3.6316472114137923,-0.8850232700083325,3.1433585107195086
1499369098518,3.997863736934505,-0.5798428320745188,3.3875028610666504
1499369098534,3.4485389486533222,-0.45777065690094787,3.692683299000464
1499369098550,3.5095750362402214,-0.5188067444876197,3.7537193865873633
1499369098566,3.936827649347606,-0.5188067444876197,3.692683299000464
1499369098582,3.3875028610666504,-0.213626306553806,3.570611123826893
1499369098598,3.2654306858930795,-0.15259021896690683,3.4485389486533222
1499369098614,2.8992141603723667,-0.213626306553806,3.1433585107195086
1499369098630,2.7161058976118966,-0.33569848172737693,2.532997634851654
1499369098646,2.8381780727854675,-0.5188067444876197,1.8005645838102282
1499369098662,2.655069810025225,-0.45777065690094787,1.1902037079423735
1499369098678,2.7771419851987957,-0.5798428320745188,0.6408789196611906
1499369098694,2.7161058976118966,-0.7629510948347615,0.15259021896690683
1499369098710,2.3498893720911838,-1.0070954451819034,-0.15259021896690683
1499369098726,2.166781109330941,-1.1902037079423735,-0.3967345693140487
1499369098742,1.8616006713969,-1.1291676203554744,-0.45777065690094787
1499369098758,1.6784924086366573,-1.1291676203554744,-0.45777065690094787
1499369098774,1.5564202334630863,-1.0070954451819034,-0.2746623941404778
1499369098790,1.3733119707026162,-0.7629510948347615,-0.09155413138023505
1499369098806,1.4343480582895154,-0.5798428320745188,0.09155413138023505
1499369098822,1.6784924086366573,-0.5188067444876197,0.33569848172737693
1499369098838,1.8005645838102282,-0.3967345693140487,0.6408789196611906
1499369098854,2.04470893415737,-0.2746623941404778,0.8239871824216607
1499369098870,2.166781109330941,-0.09155413138023505,0.8850232700083325
1499369098886,2.166781109330941,0.03051804379333589,1.0070954451819034
1499369098902,2.288853284504512,-0.03051804379333589,0.9460593575952316
1499369098918,2.288853284504512,0.03051804379333589,0.8850232700083325
1499369098935,2.288853284504512,-0.09155413138023505,0.8850232700083325
1499369098951,2.227817196917613,-0.33569848172737693,0.7629510948347615
1499369098967,2.3498893720911838,-0.5188067444876197,0.5798428320745188
1499369098983,2.3498893720911838,-0.5188067444876197,0.45777065690094787
1499369098999,2.105745021744042,-0.3967345693140487,0.3967345693140487
1499369099015,2.04470893415737,-0.33569848172737693,0.2746623941404778
1499369099031,1.8616006713969,-0.213626306553806,0.15259021896690683
1499369099047,1.8005645838102282,-0.09155413138023505,0.15259021896690683
1499369099063,1.3733119707026162,0.09155413138023505,0.213626306553806
1499369099079,1.2512397955290453,0.03051804379333589,0.213626306553806
1499369099095,1.1902037079423735,-0.03051804379333589,0.15259021896690683
1499369099111,1.1291676203554744,-0.15259021896690683,0.15259021896690683
1499369099127,1.3122758831159445,-0.213626306553806,0.15259021896690683
1499369099143,1.2512397955290453,-0.15259021896690683,0.09155413138023505
1499369099159,1.1902037079423735,-0.03051804379333589,0.03051804379333589
1499369099175,1.1902037079423735,0.03051804379333589,-0.15259021896690683
1499369099191,1.3122758831159445,-0.09155413138023505,-0.2746623941404778
1499369099207,1.4343480582895154,-0.15259021896690683,-0.2746623941404778
1499369099223,1.3122758831159445,-0.33569848172737693,-0.213626306553806
1499369099239,1.5564202334630863,-0.5188067444876197,-0.2746623941404778
1499369099255,1.8005645838102282,-0.7019150072480898,-0.33569848172737693
1499369099271,1.6784924086366573,-0.5798428320745188,-0.2746623941404778
1499369099287,1.5564202334630863,-0.45777065690094787,-0.213626306553806
1499369099303,1.739528496223329,-0.45777065690094787,-0.15259021896690683
1499369099319,1.8616006713969,-0.5188067444876197,-0.03051804379333589
1499369099335,1.9226367589837992,-0.33569848172737693,-0.03051804379333589
1499369099351,1.8005645838102282,-0.03051804379333589,0.15259021896690683
1499369099367,1.6174563210497581,0.03051804379333589,0.33569848172737693
1499369099383,1.739528496223329,-0.09155413138023505,0.45777065690094787
1499369099399,1.983672846570471,-0.213626306553806,0.5188067444876197
1499369099415,2.105745021744042,-0.213626306553806,0.5798428320745188
1499369099431,1.9226367589837992,-0.213626306553806,0.6408789196611906
1499369099447,1.8616006713969,-0.15259021896690683,0.5798428320745188
1499369099463,1.9226367589837992,-0.15259021896690683,0.5188067444876197
1499369099479,2.04470893415737,-0.15259021896690683,0.3967345693140487
1499369099495,1.983672846570471,-0.09155413138023505,0.33569848172737693
1499369099511,1.8005645838102282,-0.03051804379333589,0.33569848172737693
1499369099527,1.8005645838102282,-0.213626306553806,0.33569848172737693
1499369099543,1.8616006713969,-0.2746623941404778,0.33569848172737693
1499369099559,1.8005645838102282,-0.2746623941404778,0.33569848172737693
1499369099575,1.8005645838102282,-0.15259021896690683,0.3967345693140487
1499369099591,1.6784924086366573,-0.03051804379333589,0.45777065690094787
1499369099607,1.739528496223329,-0.15259021896690683,0.45777065690094787
1499369099623,2.04470893415737,-0.213626306553806,0.45777065690094787
1499369099639,1.8616006713969,-0.03051804379333589,0.45777065690094787
1499369099655,1.6174563210497581,0.03051804379333589,0.5188067444876197
1499369099671,1.8616006713969,-0.09155413138023505,0.5798428320745188
1499369099687,2.166781109330941,-0.2746623941404778,0.5798428320745188
1499369099703,2.105745021744042,-0.15259021896690683,0.6408789196611906
1499369099719,2.227817196917613,-0.15259021896690683,0.6408789196611906
1499369099735,2.4719615472647547,-0.213626306553806,0.5798428320745188
1499369099751,2.3498893720911838,-0.15259021896690683,0.5798428320745188
1499369099767,2.227817196917613,-0.15259021896690683,0.5798428320745188
1499369099783,2.105745021744042,-0.213626306553806,0.6408789196611906
1499369099799,1.983672846570471,-0.33569848172737693,0.6408789196611906
1499369099815,2.288853284504512,-0.3967345693140487,0.5188067444876197
1499369099832,2.410925459678083,-0.5188067444876197,0.45777065690094787
1499369099848,2.655069810025225,-0.6408789196611906,0.45777065690094787
1499369099864,2.8381780727854675,-0.7019150072480898,0.5188067444876197
1499369099880,2.9602502479590385,-0.7629510948347615,0.5188067444876197
1499369099896,2.8992141603723667,-0.7629510948347615,0.5798428320745188
1499369099912,2.532997634851654,-0.5798428320745188,0.5798428320745188
1499369099928,2.410925459678083,-0.5798428320745188,0.5798428320745188
1499369099944,2.410925459678083,-0.5188067444876197,0.7019150072480898
1499369099960,2.3498893720911838,-0.45777065690094787,0.7019150072480898
1499369099976,2.166781109330941,-0.2746623941404778,0.6408789196611906
1499369099992,2.105745021744042,-0.15259021896690683,0.5798428320745188
1499369100008,1.739528496223329,-0.03051804379333589,0.45777065690094787
1499369100024,1.5564202334630863,0.15259021896690683,0.3967345693140487
1499369100040,1.6174563210497581,0.3967345693140487,0.3967345693140487
1499369100056,1.4343480582895154,0.7629510948347615,0.33569848172737693
1499369100072,1.0070954451819034,1.3122758831159445,0.2746623941404778
1499369100088,0.33569848172737693,2.105745021744042,-0.15259021896690683
1499369100104,-0.2746623941404778,2.655069810025225,-0.213626306553806
1499369100120,-0.2746623941404778,2.5940337224383256,0.213626306553806
1499369100136,0.2746623941404778,2.4719615472647547,0.33569848172737693
1499369100152,0.7629510948347615,1.8616006713969,0.6408789196611906
1499369100168,0.09155413138023505,1.9226367589837992,1.0681315327688026
1499369100184,-1.1902037079423735,2.655069810025225,1.3733119707026162
1499369100200,-1.2512397955290453,3.2654306858930795,1.1291676203554744
1499369100216,1.2512397955290453,3.0212863355459376,0.6408789196611906
1499369100232,5.096513313496644,2.227817196917613,-0.3967345693140487
1499369100248,10.162508583199724,0.09155413138023505,-1.2512397955290453
1499369100264,12.4208438239109,-2.532997634851654,-1.4343480582895154
1499369100280,8.941786831464015,-3.2654306858930795,-1.5564202334630863
1499369100296,6.744487678339738,-3.692683299000464,-1.983672846570471
1499369100312,5.3406576638437855,-3.814755474174035,-1.6174563210497581
1499369100328,4.42511635004189,-4.42511635004189,-0.6408789196611906
1499369100344,5.76791027695117,-5.645838101777599,0.2746623941404778
1499369100360,6.8665598535133086,-6.744487678339738,1.0681315327688026
1499369100376,8.45349813076973,-8.087281605249018,1.6784924086366573
1499369100392,9.796292057679011,-9.002822919050914,2.166781109330941
1499369100408,10.345616845960194,-9.369039444571627,2.532997634851654
1499369100424,10.040436408026153,-9.55214770733187,2.9602502479590385
1499369100440,10.345616845960194,-9.55214770733187,3.0823224231326094
1499369100456,10.955977721828049,-9.002822919050914,3.0212863355459376
1499369100472,10.711833371480907,-8.270389868009488,3.0212863355459376
1499369100488,9.308003356984727,-7.11070420386045,3.2654306858930795
1499369100504,8.33142595559616,-6.256198977645454,3.4485389486533222
1499369100520,7.049668116273779,-4.852368963149502,3.4485389486533222
1499369100536,6.134126802471883,-3.6316472114137923,3.3264667734797513
1499369100552,5.889982452124741,-2.8381780727854675,3.3875028610666504
1499369100568,5.401693751430457,-2.410925459678083,3.570611123826893
1499369100584,5.523765926604028,-2.4719615472647547,3.692683299000464
1499369100600,6.073090714885211,-2.5940337224383256,3.875791561760934
1499369100616,6.500343327992596,-2.410925459678083,3.936827649347606
1499369100632,6.927595941100208,-2.4719615472647547,3.936827649347606
1499369100648,6.8665598535133086,-2.4719615472647547,4.058899824521177
1499369100664,7.2938124666209205,-2.3498893720911838,3.997863736934505
1499369100680,7.11070420386045,-1.983672846570471,3.997863736934505
1499369100696,6.500343327992596,-1.4343480582895154,4.058899824521177
1499369100712,6.439307240405924,-1.0681315327688026,3.997863736934505
1499369100728,5.645838101777599,-0.7629510948347615,4.058899824521177
1499369100744,4.974441138323073,-0.5798428320745188,4.058899824521177
1499369100761,4.486152437628789,-0.5188067444876197,3.936827649347606
1499369100777,3.3875028610666504,-0.33569848172737693,3.875791561760934
1499369100793,2.5940337224383256,-0.2746623941404778,3.4485389486533222
1499369100809,1.739528496223329,-0.03051804379333589,2.8992141603723667
1499369100825,0.33569848172737693,0.15259021896690683,2.4719615472647547
1499369100841,-0.6408789196611906,-0.09155413138023505,2.04470893415737
1499369100857,-1.2512397955290453,-0.2746623941404778,1.4953841458761872
1499369100873,-2.105745021744042,-0.15259021896690683,1.1291676203554744
1499369100889,-2.4719615472647547,0.03051804379333589,0.8239871824216607
1499369100905,-2.532997634851654,0.09155413138023505,0.7629510948347615
1499369100921,-2.9602502479590385,0.3967345693140487,0.8850232700083325
1499369100937,-3.6316472114137923,1.0070954451819034,1.0681315327688026
1499369100953,-4.303044174868319,1.6174563210497581,1.1902037079423735
1499369100969,-4.730296787975931,1.9226367589837992,1.1291676203554744
1499369100985,-4.303044174868319,1.6784924086366573,1.0070954451819034
1499369101001,-3.997863736934505,1.4953841458761872,0.8850232700083325
1499369101017,-2.655069810025225,1.0681315327688026,0.6408789196611906
1499369101033,-1.1291676203554744,0.8850232700083325,0.45777065690094787
1499369101049,-0.5188067444876197,1.3122758831159445,0.5188067444876197
1499369101065,0.5798428320745188,1.3733119707026162,0.7019150072480898
1499369101081,0.7019150072480898,1.5564202334630863,1.0681315327688026
1499369101097,0.7019150072480898,1.4953841458761872,1.3733119707026162
1499369101113,1.0681315327688026,1.3122758831159445,1.6174563210497581
1499369101129,1.0681315327688026,1.4343480582895154,1.6784924086366573
1499369101145,1.4953841458761872,1.3733119707026162,1.8616006713969
1499369101161,1.8616006713969,1.3733119707026162,1.9226367589837992
1499369101177,2.04470893415737,1.3733119707026162,1.6174563210497581
1499369101193,2.655069810025225,1.3122758831159445,1.1291676203554744
1499369101209,2.9602502479590385,1.1291676203554744,0.9460593575952316
1499369101225,2.5940337224383256,0.8239871824216607,1.1902037079423735
1499369101241,3.0212863355459376,0.213626306553806,1.2512397955290453
1499369101257,4.242008087281647,-0.213626306553806,1.0681315327688026
1499369101273,3.7537193865873633,0.03051804379333589,1.2512397955290453
1499369101289,3.4485389486533222,-0.09155413138023505,1.4343480582895154
1499369101305,3.814755474174035,-0.5188067444876197,1.5564202334630863
1499369101321,3.692683299000464,-0.7019150072480898,1.8616006713969
1499369101337,3.6316472114137923,-0.8850232700083325,2.532997634851654
1499369101353,4.242008087281647,-1.3122758831159445,3.0823224231326094
1499369101369,5.096513313496644,-1.739528496223329,3.5095750362402214
1499369101385,5.523765926604028,-1.6784924086366573,3.6316472114137923
1499369101401,4.852368963149502,-1.3122758831159445,3.814755474174035
1499369101417,3.936827649347606,-1.2512397955290453,4.119935912108076
1499369101433,3.6316472114137923,-1.4343480582895154,4.364080262455218
1499369101449,3.3264667734797513,-1.2512397955290453,4.42511635004189
1499369101465,2.655069810025225,-0.3967345693140487,4.303044174868319
1499369101481,2.105745021744042,0.33569848172737693,4.119935912108076
1499369101497,1.6174563210497581,0.8239871824216607,3.997863736934505
1499369101513,1.3733119707026162,1.0070954451819034,3.6316472114137923
1499369101529,1.3733119707026162,0.9460593575952316,3.3264667734797513
1499369101545,1.5564202334630863,0.7629510948347615,2.9602502479590385
1499369101561,1.9226367589837992,0.7629510948347615,2.5940337224383256
1499369101577,1.8616006713969,0.9460593575952316,2.288853284504512
1499369101593,1.4343480582895154,1.0681315327688026,2.105745021744042
1499369101609,1.4343480582895154,0.8850232700083325,1.8616006713969
1499369101625,1.6174563210497581,0.7019150072480898,1.8616006713969
1499369101641,1.6174563210497581,0.5798428320745188,1.9226367589837992
1499369101657,1.4343480582895154,0.5798428320745188,1.983672846570471
1499369101673,1.4343480582895154,0.6408789196611906,2.105745021744042
1499369101689,1.3733119707026162,0.7629510948347615,2.105745021744042
1499369101706,1.2512397955290453,0.7019150072480898,2.04470893415737
1499369101722,1.4343480582895154,0.3967345693140487,1.8005645838102282
1499369101738,1.6784924086366573,0.213626306553806,1.4343480582895154
1499369101754,1.8005645838102282,0.213626306553806,1.2512397955290453
1499369101770,1.739528496223329,0.09155413138023505,1.0070954451819034
1499369101786,1.983672846570471,0.03051804379333589,0.7019150072480898
1499369101802,1.9226367589837992,0.03051804379333589,0.5798428320745188
1499369101818,1.6174563210497581,-0.03051804379333589,0.5188067444876197
1499369101834,1.4343480582895154,-0.09155413138023505,0.5188067444876197
1499369101850,1.1902037079423735,-0.15259021896690683,0.3967345693140487
1499369101866,1.4343480582895154,-0.2746623941404778,0.2746623941404778
1499369101882,1.4343480582895154,-0.45777065690094787,0.15259021896690683
1499369101898,1.4953841458761872,-0.3967345693140487,0.03051804379333589
1499369101914,1.8005645838102282,-0.3967345693140487,-0.03051804379333589
1499369101930,1.6174563210497581,-0.33569848172737693,0.03051804379333589
1499369101946,1.5564202334630863,-0.2746623941404778,0.2746623941404778
1499369101962,1.6174563210497581,-0.33569848172737693,0.3967345693140487
1499369101978,1.6784924086366573,-0.45777065690094787,0.45777065690094787
1499369101994,2.04470893415737,-0.45777065690094787,0.45777065690094787
1499369102010,2.166781109330941,-0.45777065690094787,0.5188067444876197
1499369102026,2.410925459678083,-0.45777065690094787,0.45777065690094787
1499369102042,2.5940337224383256,-0.3967345693140487,0.3967345693140487
1499369102058,2.227817196917613,-0.2746623941404778,0.5188067444876197
1499369102074,2.166781109330941,-0.213626306553806,0.5798428320745188
1499369102090,2.288853284504512,-0.15259021896690683,0.7019150072480898
1499369102106,2.166781109330941,-0.09155413138023505,0.9460593575952316
1499369102122,2.410925459678083,-0.09155413138023505,1.1902037079423735
1499369102138,2.7771419851987957,-0.3967345693140487,1.4343480582895154
1499369102154,2.655069810025225,-0.45777065690094787,1.3733119707026162
1499369102170,2.8381780727854675,-0.5798428320745188,1.2512397955290453
1499369102186,2.8992141603723667,-0.7629510948347615,1.0070954451819034
1499369102202,3.0212863355459376,-1.0070954451819034,0.7629510948347615
1499369102218,3.5095750362402214,-1.4343480582895154,0.45777065690094787
1499369102234,3.814755474174035,-1.739528496223329,0.213626306553806
1499369102250,3.936827649347606,-1.9226367589837992,-0.03051804379333589
1499369102266,3.875791561760934,-1.8616006713969,-0.213626306553806
1499369102282,3.6316472114137923,-1.8616006713969,-0.3967345693140487
1499369102298,3.4485389486533222,-1.9226367589837992,-0.3967345693140487
1499369102314,3.2654306858930795,-1.9226367589837992,-0.45777065690094787
1499369102330,3.3264667734797513,-2.04470893415737,-0.2746623941404778
1499369102346,3.3875028610666504,-1.983672846570471,-0.213626306553806
1499369102362,3.3875028610666504,-1.9226367589837992,-0.09155413138023505
1499369102378,3.5095750362402214,-1.9226367589837992,-0.09155413138023505
1499369102394,3.5095750362402214,-1.739528496223329,-0.03051804379333589
1499369102410,3.3875028610666504,-1.4343480582895154,0.03051804379333589
1499369102426,3.2043945983061803,-1.1902037079423735,0.15259021896690683
1499369102442,2.7161058976118966,-0.9460593575952316,0.09155413138023505
1499369102458,2.532997634851654,-0.8850232700083325,-0.15259021896690683
1499369102474,2.227817196917613,-0.6408789196611906,-0.6408789196611906
1499369102490,1.983672846570471,-0.33569848172737693,-1.0681315327688026
1499369102506,1.6784924086366573,-0.213626306553806,-1.2512397955290453
1499369102522,1.4343480582895154,-0.2746623941404778,-1.2512397955290453
1499369102538,1.2512397955290453,-0.5188067444876197,-1.1291676203554744
1499369102554,0.9460593575952316,-0.5798428320745188,-0.8850232700083325
1499369102570,0.45777065690094787,-0.6408789196611906,-0.6408789196611906
1499369102586,0.45777065690094787,-0.5798428320745188,-0.5188067444876197
1499369102603,0.6408789196611906,-0.3967345693140487,-0.45777065690094787
1499369102619,0.6408789196611906,-0.213626306553806,-0.3967345693140487
1499369102635,0.8850232700083325,-0.03051804379333589,-0.33569848172737693
1499369102651,1.3733119707026162,-0.09155413138023505,-0.213626306553806
1499369102667,1.4953841458761872,-0.03051804379333589,-0.03051804379333589
1499369102683,1.3733119707026162,0.213626306553806,0.213626306553806
1499369102699,1.6784924086366573,0.33569848172737693,0.3967345693140487
1499369102715,1.8616006713969,0.33569848172737693,0.5798428320745188
1499369102731,2.288853284504512,0.213626306553806,0.6408789196611906
1499369102747,2.7161058976118966,-0.09155413138023505,0.5798428320745188
1499369102763,2.410925459678083,-0.09155413138023505,0.6408789196611906
1499369102779,2.532997634851654,-0.213626306553806,0.45777065690094787
1499369102795,2.8992141603723667,-0.45777065690094787,0.09155413138023505
1499369102811,2.7771419851987957,-0.45777065690094787,-0.09155413138023505
1499369102827,2.532997634851654,-0.6408789196611906,-0.213626306553806
1499369102843,2.4719615472647547,-0.8239871824216607,-0.15259021896690683
1499369102859,2.655069810025225,-1.0681315327688026,-0.09155413138023505
1499369102875,2.4719615472647547,-1.0681315327688026,0.03051804379333589
1499369102891,2.166781109330941,-0.8850232700083325,0.213626306553806
1499369102907,2.227817196917613,-0.7629510948347615,0.33569848172737693
1499369102923,2.166781109330941,-0.6408789196611906,0.45777065690094787
1499369102939,2.3498893720911838,-0.6408789196611906,0.5188067444876197
1499369102955,2.5940337224383256,-0.5798428320745188,0.5188067444876197
1499369102971,2.532997634851654,-0.45777065690094787,0.6408789196611906
1499369102987,2.5940337224383256,-0.3967345693140487,0.7629510948347615
1499369103003,2.655069810025225,-0.3967345693140487,0.8239871824216607
1499369103019,2.532997634851654,-0.3967345693140487,0.7629510948347615
1499369103035,2.655069810025225,-0.3967345693140487,0.7629510948347615
1499369103051,2.532997634851654,-0.2746623941404778,0.6408789196611906
1499369103067,2.4719615472647547,-0.2746623941404778,0.5798428320745188
1499369103083,2.410925459678083,-0.213626306553806,0.5798428320745188
1499369103099,2.3498893720911838,-0.2746623941404778,0.5188067444876197
1499369103115,2.4719615472647547,-0.33569848172737693,0.45777065690094787
1499369103131,2.532997634851654,-0.5188067444876197,0.3967345693140487
1499369103147,2.410925459678083,-0.5798428320745188,0.3967345693140487
1499369103163,2.166781109330941,-0.6408789196611906,0.33569848172737693
1499369103179,2.532997634851654,-0.7629510948347615,0.15259021896690683
1499369103195,2.655069810025225,-0.8239871824216607,-0.03051804379333589
1499369103211,2.4719615472647547,-0.7019150072480898,-0.213626306553806
1499369103227,2.3498893720911838,-0.7019150072480898,-0.33569848172737693
1499369103243,2.3498893720911838,-0.7019150072480898,-0.3967345693140487
1499369103259,2.3498893720911838,-0.6408789196611906,-0.3967345693140487
1499369103275,2.166781109330941,-0.5188067444876197,-0.3967345693140487
1499369103291,2.166781109330941,-0.45777065690094787,-0.2746623941404778
1499369103307,2.227817196917613,-0.3967345693140487,-0.09155413138023505
1499369103323,2.4719615472647547,-0.2746623941404778,-0.15259021896690683
1499369103339,2.8992141603723667,-0.213626306553806,-0.15259021896690683
1499369103355,2.532997634851654,0.03051804379333589,-0.09155413138023505
1499369103371,2.7771419851987957,0.09155413138023505,0.03051804379333589
1499369103387,2.655069810025225,0.03051804379333589,0.213626306553806
1499369103403,2.410925459678083,0.09155413138023505,0.3967345693140487
1499369103419,2.410925459678083,-0.03051804379333589,0.3967345693140487
1499369103435,2.166781109330941,-0.15259021896690683,0.3967345693140487
1499369103451,1.6784924086366573,-0.15259021896690683,0.2746623941404778
1499369103467,1.4953841458761872,-0.213626306553806,0.03051804379333589
1499369103483,1.4343480582895154,-0.09155413138023505,-0.213626306553806
1499369103499,1.2512397955290453,-0.09155413138023505,-0.2746623941404778
1499369103515,0.8850232700083325,-0.15259021896690683,-0.33569848172737693
1499369103531,0.45777065690094787,-0.09155413138023505,-0.45777065690094787
1499369103548,0.213626306553806,-0.09155413138023505,-0.5798428320745188
1499369103564,0.15259021896690683,-0.15259021896690683,-0.7629510948347615
1499369103580,0.03051804379333589,-0.33569848172737693,-0.7629510948347615
1499369103596,-0.2746623941404778,-0.5798428320745188,-0.8239871824216607
1499369103612,-0.33569848172737693,-0.5188067444876197,-0.8850232700083325
1499369103628,-0.7629510948347615,-0.213626306553806,-0.8850232700083325
1499369103644,-0.9460593575952316,-0.09155413138023505,-0.7019150072480898
1499369103660,-0.8850232700083325,0.09155413138023505,-0.5188067444876197
1499369103676,-1.0070954451819034,0.213626306553806,-0.213626306553806
1499369103692,-1.0070954451819034,0.33569848172737693,-0.03051804379333589
1499369103708,-0.9460593575952316,0.8239871824216607,0.09155413138023505
1499369103724,-1.5564202334630863,1.6174563210497581,0.33569848172737693
1499369103740,-2.4719615472647547,2.532997634851654,0.5798428320745188
1499369103756,-2.8992141603723667,3.0823224231326094,0.7629510948347615
1499369103772,-2.8381780727854675,3.0212863355459376,1.1291676203554744
1499369103788,-2.288853284504512,2.655069810025225,1.5564202334630863
1499369103804,-1.8616006713969,2.7771419851987957,1.739528496223329
1499369103820,-1.8616006713969,3.3264667734797513,1.983672846570471
1499369103836,-1.983672846570471,4.486152437628789,2.105745021744042
1499369103852,-2.410925459678083,5.645838101777599,2.105745021744042
1499369103868,-1.739528496223329,5.706874189364498,1.9226367589837992
1499369103884,-1.3733119707026162,5.0354772259097444,1.6174563210497581
1499369103900,-0.8850232700083325,3.875791561760934,1.0681315327688026
1499369103916,-0.7019150072480898,3.1433585107195086,0.3967345693140487
1499369103932,-1.2512397955290453,2.8992141603723667,-0.33569848172737693
1499369103948,-1.739528496223329,2.7161058976118966,-1.1291676203554744
1499369103964,-2.04470893415737,2.410925459678083,-2.166781109330941
1499369103980,-2.4719615472647547,2.105745021744042,-3.0823224231326094
1499369103996,-2.7771419851987957,1.6784924086366573,-3.875791561760934
1499369104012,-3.875791561760934,1.983672846570471,-4.486152437628789
1499369104028,-4.730296787975931,1.6174563210497581,-4.852368963149502
1499369104044,-5.0354772259097444,0.8850232700083325,-5.462729839017356
1499369104060,-6.256198977645454,0.8239871824216607,-5.76791027695117
1499369104076,-6.195162890058782,0.3967345693140487,-5.523765926604028
1499369104092,-7.2938124666209205,-0.03051804379333589,-5.0354772259097444
1499369104108,-7.537956816968062,-0.6408789196611906,-5.2185854886702145
1499369104124,-5.584802014190927,-1.1902037079423735,-5.279621576256886
1499369104140,-4.9134050507361735,-1.0681315327688026,-5.157549401083315
1499369104156,-5.706874189364498,-0.3967345693140487,-5.2185854886702145
1499369104172,-5.3406576638437855,0.09155413138023505,-5.523765926604028
1499369104188,-4.547188525215461,0.09155413138023505,-5.584802014190927
1499369104204,-4.852368963149502,0.2746623941404778,-5.645838101777599
1499369104220,-4.791332875562603,0.15259021896690683,-5.76791027695117
1499369104236,-3.4485389486533222,-0.213626306553806,-5.706874189364498
1499369104252,-2.655069810025225,-0.6408789196611906,-5.401693751430457
1499369104268,-2.532997634851654,-0.5798428320745188,-4.9134050507361735
1499369104284,-2.3498893720911838,-0.213626306553806,-4.364080262455218
1499369104300,-1.5564202334630863,0.03051804379333589,-3.6316472114137923
1499369104316,-0.7629510948347615,0.33569848172737693,-2.7771419851987957
1499369104332,0.03051804379333589,0.8239871824216607,-1.9226367589837992
1499369104348,-0.33569848172737693,1.3122758831159445,-1.1902037079423735
1499369104364,-0.09155413138023505,1.3122758831159445,-0.7019150072480898
1499369104380,0.8850232700083325,0.8850232700083325,-0.3967345693140487
1499369104396,0.9460593575952316,0.8239871824216607,0.09155413138023505
1499369104412,0.15259021896690683,1.2512397955290453,0.3967345693140487
1499369104428,1.0070954451819034,1.0681315327688026,0.5798428320745188
1499369104444,1.8005645838102282,1.0070954451819034,0.7019150072480898
1499369104460,1.983672846570471,1.3122758831159445,0.7629510948347615
1499369104477,2.3498893720911838,1.4343480582895154,0.8850232700083325
1499369104493,2.04470893415737,1.8616006713969,0.9460593575952316
1499369104509,1.8005645838102282,1.983672846570471,0.8850232700083325
1499369104525,1.8616006713969,1.8005645838102282,0.9460593575952316
1499369104541,1.4343480582895154,1.8005645838102282,1.0681315327688026
1499369104557,1.6174563210497581,1.9226367589837992,1.1902037079423735
1499369104573,1.6174563210497581,2.04470893415737,1.2512397955290453
1499369104589,1.5564202334630863,2.04470893415737,1.0681315327688026
1499369104605,1.6784924086366573,1.9226367589837992,0.8239871824216607
1499369104621,1.8616006713969,1.6174563210497581,0.5798428320745188
1499369104637,1.983672846570471,1.1902037079423735,0.3967345693140487
1499369104653,1.739528496223329,0.8850232700083325,0.213626306553806
1499369104669,1.6784924086366573,0.5798428320745188,0.03051804379333589
1499369104685,1.3122758831159445,0.45777065690094787,-0.2746623941404778
1499369104701,0.8239871824216607,0.3967345693140487,-0.5188067444876197
1499369104717,1.0681315327688026,-0.03051804379333589,-0.8239871824216607
1499369104733,1.3122758831159445,-0.45777065690094787,-1.0070954451819034
1499369104749,1.1902037079423735,-0.7629510948347615,-0.9460593575952316
1499369104765,1.3733119707026162,-1.0070954451819034,-0.9460593575952316
1499369104781,1.1291676203554744,-0.8850232700083325,-0.8239871824216607
1499369104797,0.7629510948347615,-0.9460593575952316,-0.8239871824216607
1499369104813,1.1291676203554744,-1.1902037079423735,-0.7629510948347615
1499369104829,1.3122758831159445,-1.3122758831159445,-0.7629510948347615
1499369104845,1.6784924086366573,-1.3733119707026162,-0.6408789196611906
1499369104861,2.288853284504512,-1.4343480582895154,-0.33569848172737693
1499369104877,2.288853284504512,-1.0681315327688026,-0.09155413138023505
1499369104893,2.3498893720911838,-1.0070954451819034,0.15259021896690683
1499369104909,2.8992141603723667,-1.0681315327688026,0.3967345693140487
1499369104925,3.2043945983061803,-1.0070954451819034,0.6408789196611906
1499369104941,3.3264667734797513,-0.8850232700083325,0.8850232700083325
1499369104957,3.692683299000464,-0.7019150072480898,1.0070954451819034
1499369104973,3.692683299000464,-0.5188067444876197,1.1902037079423735
1499369104989,3.692683299000464,-0.5188067444876197,1.2512397955290453
1499369105005,3.814755474174035,-0.6408789196611906,1.3122758831159445
1499369105021,3.7537193865873633,-0.5798428320745188,1.2512397955290453
1499369105037,3.692683299000464,-0.5188067444876197,1.1291676203554744
1499369105053,3.5095750362402214,-0.5188067444876197,1.0681315327688026
1499369105069,3.1433585107195086,-0.45777065690094787,0.9460593575952316
1499369105085,2.9602502479590385,-0.5798428320745188,0.8239871824216607
1499369105101,3.2043945983061803,-0.8850232700083325,0.7629510948347615
1499369105117,3.2043945983061803,-0.8239871824216607,0.7019150072480898
1499369105133,3.1433585107195086,-0.7629510948347615,0.5188067444876197
1499369105149,3.2654306858930795,-1.0070954451819034,0.3967345693140487
1499369105165,3.6316472114137923,-1.3122758831159445,0.2746623941404778
1499369105181,3.7537193865873633,-1.3733119707026162,0.45777065690094787
1499369105197,3.875791561760934,-1.3122758831159445,0.7629510948347615
1499369105213,4.547188525215461,-1.4953841458761872,0.9460593575952316
1499369105229,5.157549401083315,-1.739528496223329,1.3122758831159445
1499369105245,5.2185854886702145,-1.5564202334630863,1.6174563210497581
1499369105261,5.2185854886702145,-1.3733119707026162,1.9226367589837992
1499369105277,5.462729839017356,-1.4343480582895154,2.166781109330941
1499369105293,5.584802014190927,-1.4343480582895154,2.532997634851654
1499369105309,5.462729839017356,-1.1902037079423735,2.7771419851987957
1499369105325,5.401693751430457,-1.0070954451819034,3.0823224231326094
1499369105341,5.462729839017356,-0.8850232700083325,3.3264667734797513
1499369105357,5.523765926604028,-0.7019150072480898,3.6316472114137923
1499369105374,5.279621576256886,-0.45777065690094787,3.814755474174035
1499369105390,5.462729839017356,-0.33569848172737693,3.814755474174035
1499369105406,5.523765926604028,-0.15259021896690683,3.7537193865873633
1499369105422,5.157549401083315,-0.09155413138023505,3.7537193865873633
1499369105438,4.791332875562603,-0.09155413138023505,3.692683299000464
1499369105454,4.547188525215461,-0.33569848172737693,3.4485389486533222
1499369105470,4.119935912108076,-0.3967345693140487,3.2654306858930795
1499369105486,3.814755474174035,-0.45777065690094787,2.8992141603723667
