Timestamp (ms),Accel X (g),Accel Y (g),Accel Z (g)
1499369113760,-0.24432745860990313,0.9331807431143666,-0.22027924010070965
1499369113776,-0.24420538643472955,0.9331807431143666,-0.21893644617380037
1499369113792,-0.24457160296025027,0.9320820935378045,-0.2208896009765775
1499369113808,-0.24457160296025027,0.9311055161364159,-0.22235446707866036
1499369113824,-0.24432745860990313,0.9314717326619366,-0.22149996185244536
1499369113840,-0.24457160296025027,0.9301289387350273,-0.2196688792248418
1499369113856,-0.24554818036163883,0.9314717326619366,-0.22027924010070965
1499369113872,-0.24798962386511025,0.9308613717860688,-0.21954680704966822
1499369113888,-0.24664682993820097,0.9323262378881516,-0.22027924010070965
1499369113904,-0.24676890211337454,0.9365987640192266,-0.22247653925383393
1499369113920,-0.24762340733958954,0.9372091248950944,-0.2246738384069582
1499369113936,-0.24896620126649882,0.9361104753185323,-0.22491798275730535
1499369113952,-0.2465247577630274,0.9346456092164495,-0.2234531166552225
1499369113968,-0.24347295338368813,0.9324483100633252,-0.22418554970626392
1499369113984,-0.24261844815747313,0.934767681391623,-0.22284275577935464
1499369114000,-0.24249637598229956,0.9344014648661023,-0.22394140535591678
1499369114016,-0.23907835507743957,0.9348897535667966,-0.2246738384069582
1499369114032,-0.23883421072709243,0.9306172274357216,-0.22540627145799963
1499369114048,-0.24286259250782027,0.9323262378881516,-0.22626077668421463
1499369114064,-0.24640268558785383,0.9361104753185323,-0.22455176623178463
1499369114080,-0.24835584039063097,0.9368429083695737,-0.22284275577935464
1499369114096,-0.24762340733958954,0.9372091248950944,-0.22211032272831321
1499369114112,-0.24713511863889526,0.9320820935378045,-0.22076752880140393
1499369114128,-0.24664682993820097,0.9285420004577709,-0.21893644617380037
1499369114144,-0.24664682993820097,0.9315938048371102,-0.21844815747310609
1499369114160,-0.24371709773403527,0.9362325474937059,-0.22076752880140393
1499369114176,-0.24042114900434886,0.9355001144426645,-0.22162203402761893
1499369114192,-0.24249637598229956,0.9340352483405816,-0.22040131227588322
1499369114208,-0.24286259250782027,0.9324483100633252,-0.21930266269932108
1499369114224,-0.24469367513542384,0.933913176165408,-0.21527428091859324
1499369114240,-0.24420538643472955,0.9331807431143666,-0.2167391470206761
1499369114256,-0.24213015945677885,0.9357442587930116,-0.21832608529793252
1499369114272,-0.24579232471198598,0.9395284962233923,-0.22015716792553608
1499369114288,-0.24750133516441597,0.9375753414206152,-0.21808194094758537
1499369114304,-0.2453040360112917,0.9358663309681852,-0.21820401312275894
1499369114320,-0.2444495307850767,0.9344014648661023,-0.22040131227588322
1499369114336,-0.24676890211337454,0.9303730830853745,-0.22076752880140393
1499369114352,-0.24591439688715955,0.9289082169832916,-0.2179598687724118
1499369114368,-0.2439612420843824,0.9307392996108952,-0.21991302357518894
1499369114384,-0.243228809033341,0.9337911039902345,-0.2213778896772718
1499369114400,-0.24408331425955598,0.9351338979171437,-0.2238193331807432
1499369114416,-0.2418860151064317,0.935622186617838,-0.22064545662623036
1499369114432,-0.24139772640573742,0.9361104753185323,-0.21905851834897394
1499369114448,-0.24554818036163883,0.9378194857709623,-0.21905851834897394
1499369114464,-0.24640268558785383,0.9363546196688795,-0.2188143739986268
1499369114480,-0.24603646906233312,0.9352559700923173,-0.21869230182345323
1499369114496,-0.24640268558785383,0.9365987640192266,-0.21979095140001537
1499369114512,-0.2482337682154574,0.9383077744716566,-0.21698329137102323
1499369114528,-0.2485999847409781,0.9358663309681852,-0.22333104448004892
1499369114544,-0.2465247577630274,0.9353780422674909,-0.21698329137102323
1499369114560,-0.2465247577630274,0.9337911039902345,-0.2162508583199818
1499369114576,-0.2465247577630274,0.9334248874647137,-0.21564049744411395
1499369114592,-0.24115358205539028,0.9314717326619366,-0.21734950789654395
1499369114608,-0.24078736552986957,0.933058670939193,-0.21454184786755182
1499369114624,-0.24090943770504314,0.9282978561074238,-0.2150301365682461
1499369114640,-0.24139772640573742,0.9285420004577709,-0.21869230182345323
1499369114656,-0.24750133516441597,0.9359884031433587,-0.21747158007171752
1499369114672,-0.2523842221713588,0.9400167849240866,-0.21576256961928753
1499369114688,-0.24982070649271382,0.9400167849240866,-0.21551842526894038
1499369114704,-0.24725719081406883,0.933913176165408,-0.21576256961928753
1499369114720,-0.24603646906233312,0.9303730830853745,-0.2141756313420311
1499369114736,-0.24579232471198598,0.9334248874647137,-0.2141756313420311
1499369114752,-0.24432745860990313,0.9375753414206152,-0.2167391470206761
1499369114768,-0.24213015945677885,0.9361104753185323,-0.21893644617380037
1499369114784,-0.24115358205539028,0.9342793926909287,-0.21612878614480824
1499369114800,-0.240665293354696,0.9357442587930116,-0.21637293049515538
1499369114816,-0.2435950255588617,0.9335469596398873,-0.2179598687724118
1499369114832,-0.24249637598229956,0.9315938048371102,-0.21954680704966822
1499369114848,-0.24127565423056385,0.9324483100633252,-0.21771572442206466
1499369114864,-0.24591439688715955,0.9336690318150609,-0.21820401312275894
1499369114880,-0.24786755168993668,0.9367208361944002,-0.21612878614480824
1499369114896,-0.24872205691615168,0.9378194857709623,-0.21661707484550252
1499369114912,-0.2482337682154574,0.9358663309681852,-0.21893644617380037
1499369114928,-0.24811169604028382,0.934767681391623,-0.21612878614480824
1499369114944,-0.2473792629892424,0.9340352483405816,-0.21698329137102323
1499369114960,-0.2473792629892424,0.9336690318150609,-0.21600671396963467
1499369114976,-0.24811169604028382,0.934767681391623,-0.21661707484550252
1499369114992,-0.24701304646372169,0.9326924544136723,-0.21454184786755182
1499369115008,-0.24701304646372169,0.9324483100633252,-0.21405355916685753
1499369115024,-0.2448157473105974,0.9345235370412759,-0.21527428091859324
1499369115040,-0.24335088120851456,0.9342793926909287,-0.2141756313420311
1499369115056,-0.24347295338368813,0.9353780422674909,-0.21429770351720467
1499369115072,-0.243228809033341,0.935622186617838,-0.21393148699168396
1499369115088,-0.2444495307850767,0.935622186617838,-0.21490806439307253
1499369115104,-0.24847791256580454,0.9333028152895402,-0.21075761043717112
1499369115120,-0.24811169604028382,0.9341573205157552,-0.2112458991378654
1499369115136,-0.24762340733958954,0.9326924544136723,-0.2138094148165104
1499369115152,-0.24640268558785383,0.9331807431143666,-0.20990310521095612
1499369115168,-0.2461585412375067,0.9350118257419702,-0.21527428091859324
1499369115184,-0.2439612420843824,0.9351338979171437,-0.2129549095902954
1499369115200,-0.23993286030365457,0.9293965056839859,-0.21686121919584966
1499369115216,-0.24225223163195242,0.9307392996108952,-0.21808194094758537
1499369115232,-0.24542610818646526,0.9394064240482187,-0.2162508583199818
1499369115248,-0.2461585412375067,0.9428244449530787,-0.2179598687724118
1499369115264,-0.2439612420843824,0.9385519188220037,-0.21747158007171752
1499369115280,-0.24518196383611812,0.930495155260548,-0.2167391470206761
1499369115296,-0.2461585412375067,0.9295185778591595,-0.21429770351720467
1499369115312,-0.24628061341268026,0.9344014648661023,-0.2129549095902954
1499369115328,-0.24664682993820097,0.9379415579461359,-0.21405355916685753
1499369115344,-0.2427405203326467,0.9333028152895402,-0.21661707484550252
1499369115360,-0.24127565423056385,0.932204165712978,-0.21576256961928753
1499369115376,-0.24127565423056385,0.9367208361944002,-0.21661707484550252
1499369115392,-0.24579232471198598,0.9374532692454416,-0.21722743572137038
1499369115408,-0.24335088120851456,0.9337911039902345,-0.21649500267032895
1499369115424,-0.24335088120851456,0.9334248874647137,-0.21893644617380037
1499369115440,-0.24505989166094455,0.9348897535667966,-0.22125581750209822
1499369115456,-0.24689097428854812,0.9342793926909287,-0.21783779659723823
1499369115472,-0.24798962386511025,0.935622186617838,-0.22040131227588322
1499369115488,-0.24689097428854812,0.9334248874647137,-0.22015716792553608
1499369115504,-0.24591439688715955,0.9323262378881516,-0.2200350957503625
1499369115520,-0.24457160296025027,0.931349660486763,-0.22101167315175108
1499369115536,-0.24493781948577098,0.9312275883115895,-0.22211032272831321
1499369115552,-0.24542610818646526,0.933913176165408,-0.21930266269932108
1499369115568,-0.24469367513542384,0.9362325474937059,-0.22406347753109035
1499369115584,-0.24505989166094455,0.9357442587930116,-0.22320897230487535
1499369115600,-0.2456702525368124,0.9346456092164495,-0.2225986114290075
1499369115616,-0.24579232471198598,0.9344014648661023,-0.22162203402761893
1499369115632,-0.24713511863889526,0.9329365987640195,-0.22223239490348679
1499369115648,-0.2448157473105974,0.9337911039902345,-0.22040131227588322
1499369115664,-0.24591439688715955,0.932204165712978,-0.22125581750209822
1499369115680,-0.24518196383611812,0.9328145265888459,-0.2196688792248418
1499369115696,-0.24249637598229956,0.9320820935378045,-0.21869230182345323
1499369115712,-0.24505989166094455,0.9325703822384988,-0.22125581750209822
1499369115728,-0.24554818036163883,0.933913176165408,-0.22235446707866036
1499369115744,-0.24542610818646526,0.9351338979171437,-0.2229648279545282
1499369115760,-0.24310673685816742,0.9342793926909287,-0.22272068360418107
1499369115776,-0.24115358205539028,0.9293965056839859,-0.22235446707866036
1499369115792,-0.24164187075608456,0.9275654230563823,-0.2246738384069582
1499369115808,-0.24469367513542384,0.9331807431143666,-0.2234531166552225
1499369115824,-0.2490882734416724,0.9378194857709623,-0.22369726100556964
1499369115840,-0.24640268558785383,0.9361104753185323,-0.22333104448004892
1499369115856,-0.24640268558785383,0.9341573205157552,-0.2243076218814375
1499369115872,-0.2444495307850767,0.9295185778591595,-0.22198825055313964
1499369115888,-0.2465247577630274,0.9301289387350273,-0.22125581750209822
1499369115904,-0.24505989166094455,0.9350118257419702,-0.22162203402761893
1499369115920,-0.24347295338368813,0.933913176165408,-0.22406347753109035
1499369115936,-0.24335088120851456,0.9320820935378045,-0.2234531166552225
1499369115952,-0.24347295338368813,0.9311055161364159,-0.22149996185244536
1499369115968,-0.24408331425955598,0.9301289387350273,-0.22333104448004892
1499369115984,-0.24335088120851456,0.9298847943846802,-0.21979095140001537
1499369116000,-0.243228809033341,0.9320820935378045,-0.22235446707866036
1499369116016,-0.2448157473105974,0.9351338979171437,-0.22101167315175108
1499369116032,-0.2473792629892424,0.9355001144426645,-0.22796978713664462
1499369116048,-0.24725719081406883,0.9350118257419702,-0.22357518883039607
1499369116064,-0.24640268558785383,0.9368429083695737,-0.22320897230487535
1499369116080,-0.24383916990920884,0.9346456092164495,-0.22223239490348679
1499369116096,-0.24408331425955598,0.9314717326619366,-0.22223239490348679
1499369116112,-0.2435950255588617,0.9335469596398873,-0.2246738384069582
1499369116128,-0.2427405203326467,0.9334248874647137,-0.22491798275730535
1499369116144,-0.241519798580911,0.9341573205157552,-0.22284275577935464
1499369116160,-0.24029907682917528,0.9309834439612423,-0.22235446707866036
1499369116176,-0.2410315098802167,0.9300068665598538,-0.22418554970626392
1499369116192,-0.2427405203326467,0.9326924544136723,-0.22198825055313964
1499369116208,-0.2418860151064317,0.9317158770122838,-0.2225986114290075
1499369116224,-0.24310673685816742,0.9335469596398873,-0.22113374532692465
1499369116240,-0.241519798580911,0.9342793926909287,-0.22320897230487535
1499369116256,-0.24200808728160528,0.9335469596398873,-0.22064545662623036
1499369116272,-0.2427405203326467,0.9317158770122838,-0.2191805905241475
1499369116288,-0.24335088120851456,0.9314717326619366,-0.2196688792248418
1499369116304,-0.24298466468299385,0.9334248874647137,-0.22186617837796607
1499369116320,-0.24469367513542384,0.9336690318150609,-0.22162203402761893
1499369116336,-0.24139772640573742,0.9342793926909287,-0.22284275577935464
1499369116352,-0.24115358205539028,0.9337911039902345,-0.22333104448004892
1499369116368,-0.24139772640573742,0.9290302891584652,-0.22162203402761893
1499369116384,-0.2418860151064317,0.9282978561074238,-0.22491798275730535
1499369116400,-0.2439612420843824,0.9315938048371102,-0.2246738384069582
1499369116416,-0.24518196383611812,0.9369649805447473,-0.22235446707866036
1499369116432,-0.24432745860990313,0.9369649805447473,-0.22223239490348679
1499369116448,-0.24286259250782027,0.9341573205157552,-0.22504005493247892
1499369116464,-0.24335088120851456,0.9280537117570766,-0.2238193331807432
1499369116480,-0.2465247577630274,0.9281757839322502,-0.22101167315175108
1499369116496,-0.24664682993820097,0.934767681391623,-0.2234531166552225
1499369116512,-0.24505989166094455,0.9342793926909287,-0.22601663233386748
1499369116528,-0.2448157473105974,0.9311055161364159,-0.22772564278629748
1499369116544,-0.24579232471198598,0.9319600213626309,-0.22284275577935464
1499369116560,-0.2465247577630274,0.9300068665598538,-0.2243076218814375
1499369116576,-0.24371709773403527,0.9298847943846802,-0.22442969405661106
1499369116592,-0.24176394293125814,0.9293965056839859,-0.2234531166552225
1499369116608,-0.2439612420843824,0.9319600213626309,-0.22662699320973534
1499369116624,-0.24628061341268026,0.9331807431143666,-0.22833600366216533
1499369116640,-0.24628061341268026,0.9325703822384988,-0.22687113756008248
1499369116656,-0.24713511863889526,0.9331807431143666,-0.22455176623178463
1499369116672,-0.24872205691615168,0.9319600213626309,-0.22882429236285962
1499369116688,-0.24591439688715955,0.9303730830853745,-0.22906843671320676
1499369116704,-0.24457160296025027,0.9280537117570766,-0.22662699320973534
1499369116720,-0.24347295338368813,0.9303730830853745,-0.22662699320973534
1499369116736,-0.2448157473105974,0.9302510109102009,-0.22821393148699176
1499369116752,-0.2435950255588617,0.9293965056839859,-0.22796978713664462
1499369116768,-0.24420538643472955,0.9303730830853745,-0.2284580758373389
1499369116784,-0.24347295338368813,0.9315938048371102,-0.22919050888838033
1499369116800,-0.2439612420843824,0.9319600213626309,-0.22955672541390104
1499369116816,-0.24420538643472955,0.9326924544136723,-0.2293125810635539
1499369116832,-0.24591439688715955,0.933058670939193,-0.2305333028152896
1499369116848,-0.24603646906233312,0.9336690318150609,-0.22980086976424818
1499369116864,-0.24835584039063097,0.9326924544136723,-0.23041123064011604
1499369116880,-0.2482337682154574,0.9329365987640195,-0.22870222018768604
1499369116896,-0.24689097428854812,0.9302510109102009,-0.22796978713664462
1499369116912,-0.24579232471198598,0.9315938048371102,-0.22601663233386748
1499369116928,-0.24347295338368813,0.9333028152895402,-0.22650492103456177
1499369116944,-0.24383916990920884,0.9326924544136723,-0.22735942626077676
1499369116960,-0.24335088120851456,0.9334248874647137,-0.22882429236285962
1499369116976,-0.24176394293125814,0.9291523613336388,-0.2310215915159839
1499369116992,-0.24225223163195242,0.9285420004577709,-0.22919050888838033
1499369117008,-0.2453040360112917,0.9331807431143666,-0.22906843671320676
1499369117024,-0.24554818036163883,0.9359884031433587,-0.22565041580834677
1499369117040,-0.24335088120851456,0.9325703822384988,-0.22711528191042962
1499369117056,-0.2410315098802167,0.928786144808118,-0.2258945601586939
1499369117072,-0.24542610818646526,0.9252460517280845,-0.2251621271076525
1499369117088,-0.24762340733958954,0.9291523613336388,-0.2229648279545282
1499369117104,-0.24579232471198598,0.9337911039902345,-0.2272373540856032
1499369117120,-0.2448157473105974,0.9328145265888459,-0.22613870450904106
1499369117136,-0.24347295338368813,0.9326924544136723,-0.2280918593118182
1499369117152,-0.2439612420843824,0.9306172274357216,-0.22504005493247892
1499369117168,-0.24505989166094455,0.9314717326619366,-0.22198825055313964
1499369117184,-0.24347295338368813,0.930495155260548,-0.22198825055313964
1499369117200,-0.24200808728160528,0.9311055161364159,-0.22394140535591678
1499369117216,-0.2444495307850767,0.934767681391623,-0.22406347753109035
1499369117232,-0.24835584039063097,0.933913176165408,-0.22528419928282606
1499369117248,-0.24640268558785383,0.9353780422674909,-0.22479591058213177
1499369117264,-0.24689097428854812,0.9337911039902345,-0.22626077668421463
1499369117280,-0.2465247577630274,0.9319600213626309,-0.23004501411459533
1499369117296,-0.24591439688715955,0.9309834439612423,-0.22601663233386748
1499369117312,-0.24457160296025027,0.929640650034333,-0.22406347753109035
1499369117328,-0.24371709773403527,0.9291523613336388,-0.2238193331807432
1499369117344,-0.24518196383611812,0.931349660486763,-0.2246738384069582
1499369117360,-0.24432745860990313,0.932204165712978,-0.22833600366216533
1499369117376,-0.24554818036163883,0.933058670939193,-0.22479591058213177
1499369117392,-0.24628061341268026,0.9326924544136723,-0.22211032272831321
1499369117408,-0.24628061341268026,0.9351338979171437,-0.2208896009765775
1499369117424,-0.24542610818646526,0.9329365987640195,-0.22198825055313964
1499369117440,-0.2444495307850767,0.9335469596398873,-0.2217441062027925
1499369117456,-0.24603646906233312,0.932204165712978,-0.2208896009765775
1499369117472,-0.24603646906233312,0.9315938048371102,-0.22027924010070965
1499369117488,-0.2453040360112917,0.9335469596398873,-0.2229648279545282
1499369117504,-0.2427405203326467,0.9328145265888459,-0.22491798275730535
1499369117520,-0.24493781948577098,0.932204165712978,-0.22223239490348679
1499369117536,-0.24090943770504314,0.9312275883115895,-0.2217441062027925
1499369117552,-0.241519798580911,0.9333028152895402,-0.22101167315175108
1499369117568,-0.24261844815747313,0.9298847943846802,-0.22101167315175108
1499369117584,-0.23993286030365457,0.9264667734798202,-0.22272068360418107
1499369117600,-0.242374303807126,0.9324483100633252,-0.2217441062027925
1499369117616,-0.24725719081406883,0.9392843518730452,-0.22076752880140393
1499369117632,-0.2465247577630274,0.9386739909971773,-0.22040131227588322
1499369117648,-0.24505989166094455,0.9346456092164495,-0.22015716792553608
1499369117664,-0.24383916990920884,0.9261005569542995,-0.21832608529793252
1499369117680,-0.2439612420843824,0.9289082169832916,-0.21686121919584966
1499369117696,-0.24591439688715955,0.9337911039902345,-0.2179598687724118
1499369117712,-0.24518196383611812,0.9342793926909287,-0.21942473487449465
1499369117728,-0.24310673685816742,0.9303730830853745,-0.21857022964827966
1499369117744,-0.24127565423056385,0.929640650034333,-0.21747158007171752
1499369117760,-0.24200808728160528,0.9320820935378045,-0.21954680704966822
1499369117776,-0.24298466468299385,0.9351338979171437,-0.21893644617380037
1499369117792,-0.24164187075608456,0.9325703822384988,-0.22015716792553608
1499369117808,-0.24371709773403527,0.9342793926909287,-0.22149996185244536
1499369117824,-0.24701304646372169,0.9363546196688795,-0.22027924010070965
1499369117840,-0.24664682993820097,0.9374532692454416,-0.22015716792553608
1499369117856,-0.2453040360112917,0.9341573205157552,-0.22247653925383393
1499369117872,-0.24701304646372169,0.933058670939193,-0.22027924010070965
1499369117888,-0.24286259250782027,0.9307392996108952,-0.22027924010070965
1499369117904,-0.24469367513542384,0.9325703822384988,-0.2196688792248418
1499369117920,-0.24725719081406883,0.9340352483405816,-0.21979095140001537
1499369117936,-0.24640268558785383,0.9331807431143666,-0.2205233844510568
1499369117952,-0.2453040360112917,0.9315938048371102,-0.22027924010070965
1499369117968,-0.24505989166094455,0.932204165712978,-0.21954680704966822
1499369117984,-0.24579232471198598,0.9324483100633252,-0.21783779659723823
1499369118000,-0.24676890211337454,0.9334248874647137,-0.21808194094758537
1499369118016,-0.24811169604028382,0.9350118257419702,-0.21686121919584966
1499369118032,-0.24676890211337454,0.9348897535667966,-0.21722743572137038
1499369118048,-0.2448157473105974,0.9329365987640195,-0.2205233844510568
1499369118064,-0.2435950255588617,0.9328145265888459,-0.21600671396963467
1499369118080,-0.243228809033341,0.9342793926909287,-0.2188143739986268
1499369118096,-0.24286259250782027,0.9335469596398873,-0.21832608529793252
1499369118112,-0.243228809033341,0.9337911039902345,-0.21734950789654395
1499369118128,-0.2435950255588617,0.9352559700923173,-0.21930266269932108
1499369118144,-0.24225223163195242,0.9341573205157552,-0.21600671396963467
1499369118160,-0.24078736552986957,0.9303730830853745,-0.21893644617380037
1499369118176,-0.24127565423056385,0.9325703822384988,-0.21661707484550252
1499369118192,-0.24664682993820097,0.937331197070268,-0.21869230182345323
1499369118208,-0.2477454795147631,0.9418478675516901,-0.21722743572137038
1499369118224,-0.24725719081406883,0.9370870527199209,-0.21686121919584966
1499369118240,-0.24383916990920884,0.9295185778591595,-0.21551842526894038
1499369118256,-0.24298466468299385,0.9275654230563823,-0.21661707484550252
1499369118272,-0.2448157473105974,0.9318379491874573,-0.2179598687724118
1499369118288,-0.24689097428854812,0.9358663309681852,-0.21527428091859324
1499369118304,-0.24225223163195242,0.9334248874647137,-0.21612878614480824
1499369118320,-0.241519798580911,0.9324483100633252,-0.2158846417944611
1499369118336,-0.240665293354696,0.931349660486763,-0.21820401312275894
1499369118352,-0.242374303807126,0.9319600213626309,-0.2175936522468911
1499369118368,-0.24200808728160528,0.9344014648661023,-0.21637293049515538
1499369118384,-0.24127565423056385,0.9357442587930116,-0.22101167315175108
1499369118400,-0.2427405203326467,0.9357442587930116,-0.21979095140001537
1499369118416,-0.24469367513542384,0.9340352483405816,-0.21954680704966822
1499369118432,-0.24579232471198598,0.934767681391623,-0.21783779659723823
1499369118448,-0.2465247577630274,0.9340352483405816,-0.21612878614480824
1499369118464,-0.24457160296025027,0.9302510109102009,-0.2191805905241475
1499369118480,-0.242374303807126,0.931349660486763,-0.22064545662623036
1499369118496,-0.243228809033341,0.9342793926909287,-0.22113374532692465
1499369118512,-0.2427405203326467,0.9351338979171437,-0.22064545662623036
1499369118528,-0.24127565423056385,0.9328145265888459,-0.2205233844510568
1499369118544,-0.24054322117952243,0.9326924544136723,-0.22320897230487535
1499369118560,-0.240665293354696,0.9315938048371102,-0.22149996185244536
1499369118576,-0.242374303807126,0.9334248874647137,-0.22211032272831321
1499369118592,-0.2435950255588617,0.9334248874647137,-0.2217441062027925
1499369118608,-0.24249637598229956,0.9367208361944002,-0.2238193331807432
1499369118624,-0.24493781948577098,0.9357442587930116,-0.22455176623178463
1499369118640,-0.2456702525368124,0.9323262378881516,-0.22235446707866036
1499369118656,-0.24347295338368813,0.9309834439612423,-0.22333104448004892
1499369118672,-0.24310673685816742,0.9311055161364159,-0.22565041580834677
1499369118688,-0.24249637598229956,0.931349660486763,-0.2246738384069582
1499369118704,-0.24029907682917528,0.9324483100633252,-0.22699320973525605
1499369118720,-0.239810788128481,0.9353780422674909,-0.2246738384069582
1499369118736,-0.2401770046540017,0.933058670939193,-0.22711528191042962
1499369118752,-0.24090943770504314,0.9307392996108952,-0.22528419928282606
1499369118768,-0.24090943770504314,0.9326924544136723,-0.22699320973525605
1499369118784,-0.2453040360112917,0.9376974135957887,-0.22650492103456177
1499369118800,-0.24505989166094455,0.9375753414206152,-0.22369726100556964
1499369118816,-0.24347295338368813,0.9331807431143666,-0.22528419928282606
1499369118832,-0.24640268558785383,0.9290302891584652,-0.22272068360418107
1499369118848,-0.24725719081406883,0.9279316395819031,-0.2234531166552225
1499369118864,-0.24701304646372169,0.9328145265888459,-0.2217441062027925
1499369118880,-0.24408331425955598,0.9344014648661023,-0.22577248798352034
1499369118896,-0.24005493247882814,0.9323262378881516,-0.22821393148699176
1499369118912,-0.238101777676051,0.9298847943846802,-0.22442969405661106
1499369118928,-0.238956282902266,0.9318379491874573,-0.22662699320973534
1499369118944,-0.2394445716029603,0.9326924544136723,-0.2225986114290075
1499369118960,-0.23822384985122458,0.9311055161364159,-0.22601663233386748
1499369118976,-0.2394445716029603,0.9331807431143666,-0.22540627145799963
1499369118992,-0.23920042725261315,0.9345235370412759,-0.22699320973525605
1499369119008,-0.23993286030365457,0.9348897535667966,-0.2255283436331732
1499369119024,-0.2401770046540017,0.933913176165408,-0.22491798275730535
1499369119040,-0.24127565423056385,0.9342793926909287,-0.22613870450904106
1499369119056,-0.24078736552986957,0.9324483100633252,-0.2289463645380332
1499369119072,-0.23871213855191886,0.932204165712978,-0.22833600366216533
1499369119088,-0.23993286030365457,0.9317158770122838,-0.22577248798352034
1499369119104,-0.23956664377813386,0.9302510109102009,-0.22992294193942175
1499369119120,-0.24042114900434886,0.9293965056839859,-0.2258945601586939
1499369119136,-0.23993286030365457,0.9300068665598538,-0.2258945601586939
1499369119152,-0.24078736552986957,0.9311055161364159,-0.22650492103456177
1499369119168,-0.24029907682917528,0.933058670939193,-0.22613870450904106
1499369119184,-0.2401770046540017,0.9331807431143666,-0.2263828488593882
1499369119200,-0.23956664377813386,0.9314717326619366,-0.22772564278629748
1499369119216,-0.23993286030365457,0.9324483100633252,-0.23004501411459533
1499369119232,-0.24164187075608456,0.9341573205157552,-0.2258945601586939
1499369119248,-0.241519798580911,0.9333028152895402,-0.2280918593118182
1499369119264,-0.239810788128481,0.930495155260548,-0.22784771496147105
1499369119280,-0.24213015945677885,0.9300068665598538,-0.2246738384069582
1499369119296,-0.24127565423056385,0.933058670939193,-0.2284580758373389
1499369119312,-0.23956664377813386,0.933913176165408,-0.22711528191042962
1499369119328,-0.23968871595330743,0.9282978561074238,-0.2313878080415046
1499369119344,-0.24042114900434886,0.9284199282825973,-0.22980086976424818
1499369119360,-0.24310673685816742,0.933058670939193,-0.23248645761806674
1499369119376,-0.24335088120851456,0.9342793926909287,-0.22687113756008248
1499369119392,-0.24078736552986957,0.9345235370412759,-0.22650492103456177
1499369119408,-0.23956664377813386,0.931349660486763,-0.2276035706111239
1499369119424,-0.24127565423056385,0.9298847943846802,-0.2255283436331732
1499369119440,-0.24310673685816742,0.9325703822384988,-0.22577248798352034
1499369119456,-0.24078736552986957,0.9348897535667966,-0.22882429236285962
1499369119472,-0.23822384985122458,0.9317158770122838,-0.2272373540856032
1499369119488,-0.2394445716029603,0.9285420004577709,-0.22650492103456177
1499369119504,-0.23883421072709243,0.9295185778591595,-0.22772564278629748
1499369119520,-0.24127565423056385,0.9297627222095066,-0.2276035706111239
1499369119536,-0.2401770046540017,0.932204165712978,-0.22442969405661106
1499369119552,-0.2410315098802167,0.932204165712978,-0.22650492103456177
1499369119568,-0.2401770046540017,0.9340352483405816,-0.22943465323872747
1499369119584,-0.24042114900434886,0.9335469596398873,-0.23114366369115746
1499369119600,-0.24078736552986957,0.9335469596398873,-0.23065537499046318
1499369119616,-0.242374303807126,0.9337911039902345,-0.22919050888838033
1499369119632,-0.24090943770504314,0.9344014648661023,-0.23004501411459533
1499369119648,-0.24164187075608456,0.9312275883115895,-0.23041123064011604
1499369119664,-0.24225223163195242,0.9303730830853745,-0.2272373540856032
1499369119680,-0.24127565423056385,0.9297627222095066,-0.22992294193942175
1499369119696,-0.2418860151064317,0.9298847943846802,-0.22882429236285962
1499369119712,-0.239810788128481,0.9290302891584652,-0.22882429236285962
1499369119728,-0.23993286030365457,0.9314717326619366,-0.23041123064011604
1499369119744,-0.241519798580911,0.932204165712978,-0.22943465323872747
1499369119760,-0.24213015945677885,0.9342793926909287,-0.22980086976424818
1499369119776,-0.2418860151064317,0.9317158770122838,-0.22784771496147105
1499369119792,-0.238956282902266,0.9325703822384988,-0.22735942626077676
1499369119808,-0.2410315098802167,0.9340352483405816,-0.22821393148699176
1499369119824,-0.241519798580911,0.9334248874647137,-0.22821393148699176
1499369119840,-0.23993286030365457,0.9319600213626309,-0.22601663233386748
1499369119856,-0.2394445716029603,0.9284199282825973,-0.22821393148699176
1499369119872,-0.23871213855191886,0.9314717326619366,-0.22626077668421463
1499369119888,-0.238956282902266,0.9323262378881516,-0.22748149843595034
1499369119904,-0.238956282902266,0.9328145265888459,-0.22858014801251247
1499369119920,-0.237247272449836,0.9295185778591595,-0.2276035706111239
1499369119936,-0.2401770046540017,0.9298847943846802,-0.22784771496147105
1499369119952,-0.24200808728160528,0.9341573205157552,-0.2296787975890746
1499369119968,-0.24127565423056385,0.9358663309681852,-0.22626077668421463
1499369119984,-0.23797970550087744,0.9336690318150609,-0.2305333028152896
1499369120000,-0.239810788128481,0.9312275883115895,-0.23041123064011604
1499369120016,-0.2427405203326467,0.9276874952315559,-0.22858014801251247
1499369120032,-0.242374303807126,0.9298847943846802,-0.22613870450904106
1499369120048,-0.24127565423056385,0.9336690318150609,-0.22943465323872747
1499369120064,-0.24029907682917528,0.9311055161364159,-0.22919050888838033
1499369120080,-0.2394445716029603,0.928786144808118,-0.2305333028152896
1499369120096,-0.23883421072709243,0.9309834439612423,-0.22858014801251247
1499369120112,-0.240665293354696,0.9315938048371102,-0.22650492103456177
1499369120128,-0.24005493247882814,0.9307392996108952,-0.2258945601586939
1499369120144,-0.24286259250782027,0.9323262378881516,-0.22613870450904106
1499369120160,-0.2435950255588617,0.9351338979171437,-0.23004501411459533
1499369120176,-0.2435950255588617,0.9351338979171437,-0.22711528191042962
1499369120192,-0.24249637598229956,0.9340352483405816,-0.22943465323872747
1499369120208,-0.24335088120851456,0.9351338979171437,-0.2313878080415046
1499369120224,-0.24420538643472955,0.932204165712978,-0.2310215915159839
1499369120240,-0.24371709773403527,0.929640650034333,-0.23150988021667818
1499369120256,-0.2435950255588617,0.9289082169832916,-0.22711528191042962
1499369120272,-0.24310673685816742,0.9306172274357216,-0.23065537499046318
1499369120288,-0.24371709773403527,0.9317158770122838,-0.22955672541390104
1499369120304,-0.2444495307850767,0.931349660486763,-0.2293125810635539
1499369120320,-0.2456702525368124,0.9328145265888459,-0.23077744716563675
1499369120336,-0.24640268558785383,0.9350118257419702,-0.23065537499046318
1499369120352,-0.24469367513542384,0.9361104753185323,-0.2310215915159839
1499369120368,-0.24432745860990313,0.934767681391623,-0.2310215915159839
1499369120384,-0.24493781948577098,0.9326924544136723,-0.22955672541390104
1499369120400,-0.2448157473105974,0.9320820935378045,-0.22650492103456177
1499369120416,-0.24457160296025027,0.9323262378881516,-0.22821393148699176
1499369120432,-0.2439612420843824,0.9306172274357216,-0.22796978713664462
1499369120448,-0.24225223163195242,0.9319600213626309,-0.22711528191042962
1499369120464,-0.240665293354696,0.9333028152895402,-0.2258945601586939
1499369120480,-0.240665293354696,0.9336690318150609,-0.22418554970626392
1499369120496,-0.2385900663767453,0.9267109178301673,-0.22504005493247892
1499369120512,-0.2401770046540017,0.9286640726329445,-0.22601663233386748
1499369120528,-0.24518196383611812,0.9355001144426645,-0.22442969405661106
1499369120544,-0.24786755168993668,0.9372091248950944,-0.22418554970626392
1499369120560,-0.24542610818646526,0.9351338979171437,-0.22223239490348679
1499369120576,-0.2439612420843824,0.9284199282825973,-0.22211032272831321
1499369120592,-0.24347295338368813,0.9263447013046466,-0.2229648279545282
1499369120608,-0.2448157473105974,0.929640650034333,-0.2196688792248418
1499369120624,-0.2444495307850767,0.9369649805447473,-0.21979095140001537
1499369120640,-0.24127565423056385,0.9335469596398873,-0.22064545662623036
1499369120656,-0.23883421072709243,0.9308613717860688,-0.22211032272831321
1499369120672,-0.24042114900434886,0.9300068665598538,-0.22455176623178463
1499369120688,-0.242374303807126,0.9318379491874573,-0.2188143739986268
1499369120704,-0.242374303807126,0.9315938048371102,-0.21979095140001537
1499369120720,-0.24335088120851456,0.9333028152895402,-0.22113374532692465
1499369120736,-0.24554818036163883,0.9341573205157552,-0.22272068360418107
1499369120752,-0.24676890211337454,0.9352559700923173,-0.22162203402761893
1499369120768,-0.24591439688715955,0.9342793926909287,-0.22601663233386748
1499369120784,-0.24664682993820097,0.9335469596398873,-0.22540627145799963
1499369120800,-0.24640268558785383,0.9340352483405816,-0.22333104448004892
1499369120816,-0.24469367513542384,0.9333028152895402,-0.2255283436331732
1499369120832,-0.24383916990920884,0.932204165712978,-0.22308690012970178
1499369120848,-0.24383916990920884,0.9309834439612423,-0.22247653925383393
1499369120864,-0.2444495307850767,0.9309834439612423,-0.2246738384069582
1499369120880,-0.24249637598229956,0.9317158770122838,-0.22223239490348679
1499369120896,-0.24420538643472955,0.9346456092164495,-0.22406347753109035
1499369120912,-0.24469367513542384,0.9337911039902345,-0.22272068360418107
1499369120928,-0.2444495307850767,0.9341573205157552,-0.2229648279545282
1499369120944,-0.24603646906233312,0.933058670939193,-0.22479591058213177
1499369120960,-0.24469367513542384,0.9328145265888459,-0.22076752880140393
1499369120976,-0.24469367513542384,0.9353780422674909,-0.22272068360418107
1499369120992,-0.24603646906233312,0.9341573205157552,-0.22064545662623036
1499369121008,-0.24432745860990313,0.9317158770122838,-0.21979095140001537
1499369121024,-0.2439612420843824,0.9309834439612423,-0.22284275577935464
1499369121040,-0.24261844815747313,0.9317158770122838,-0.22211032272831321
1499369121056,-0.24225223163195242,0.9298847943846802,-0.2208896009765775
1499369121072,-0.24249637598229956,0.9258564126039524,-0.22565041580834677
1499369121088,-0.2448157473105974,0.931349660486763,-0.22369726100556964
1499369121104,-0.2503089951934081,0.9392843518730452,-0.22528419928282606
1499369121120,-0.24921034561684596,0.9401388570992602,-0.22418554970626392
1499369121136,-0.24713511863889526,0.9312275883115895,-0.22186617837796607
1499369121152,-0.24469367513542384,0.9259784847791259,-0.2175936522468911
1499369121168,-0.24469367513542384,0.9280537117570766,-0.21979095140001537
1499369121184,-0.24676890211337454,0.933913176165408,-0.21783779659723823
1499369121200,-0.24335088120851456,0.9293965056839859,-0.21747158007171752
1499369121216,-0.23846799420157172,0.9219501029983981,-0.21747158007171752
1499369121232,-0.23675898374914173,0.9248798352025638,-0.22149996185244536
1499369121248,-0.24225223163195242,0.9319600213626309,-0.2229648279545282
1499369121264,-0.2461585412375067,0.9385519188220037,-0.2258945601586939
1499369121280,-0.2439612420843824,0.937331197070268,-0.23089951934081032
1499369121296,-0.24335088120851456,0.9363546196688795,-0.23175402456702532
1499369121312,-0.24383916990920884,0.9348897535667966,-0.23468375677119102
1499369121328,-0.24603646906233312,0.932204165712978,-0.23321889066910817
1499369121344,-0.2461585412375067,0.9337911039902345,-0.2313878080415046
1499369121360,-0.24640268558785383,0.9329365987640195,-0.2322423132677196
1499369121376,-0.24457160296025027,0.9308613717860688,-0.23248645761806674
1499369121392,-0.2461585412375067,0.9295185778591595,-0.22992294193942175
1499369121408,-0.24982070649271382,0.930495155260548,-0.2267490653849089
1499369121424,-0.24798962386511025,0.9285420004577709,-0.22613870450904106
1499369121440,-0.2465247577630274,0.9274433508812088,-0.22455176623178463
1499369121456,-0.24493781948577098,0.9285420004577709,-0.22601663233386748
1499369121472,-0.24786755168993668,0.9318379491874573,-0.22504005493247892
1499369121488,-0.24591439688715955,0.9323262378881516,-0.2251621271076525
1499369121504,-0.24505989166094455,0.933913176165408,-0.22577248798352034
1499369121520,-0.24347295338368813,0.9341573205157552,-0.22394140535591678
1499369121536,-0.24383916990920884,0.9326924544136723,-0.22528419928282606
1499369121552,-0.24493781948577098,0.9320820935378045,-0.2267490653849089
1499369121568,-0.2435950255588617,0.932204165712978,-0.22882429236285962
1499369121584,-0.24432745860990313,0.9318379491874573,-0.22662699320973534
1499369121600,-0.243228809033341,0.9323262378881516,-0.23065537499046318
1499369121616,-0.241519798580911,0.9297627222095066,-0.22882429236285962
1499369121632,-0.24054322117952243,0.9261005569542995,-0.23297474631876103
1499369121648,-0.2418860151064317,0.9258564126039524,-0.23273060196841389
1499369121664,-0.2473792629892424,0.9312275883115895,-0.23077744716563675
1499369121680,-0.2494544899671931,0.9365987640192266,-0.22870222018768604
1499369121696,-0.24591439688715955,0.9374532692454416,-0.2313878080415046
1499369121712,-0.24432745860990313,0.9314717326619366,-0.23028915846494247
1499369121728,-0.24225223163195242,0.9259784847791259,-0.23041123064011604
1499369121744,-0.24286259250782027,0.9286640726329445,-0.22882429236285962
1499369121760,-0.24164187075608456,0.9329365987640195,-0.23041123064011604
1499369121776,-0.24310673685816742,0.9317158770122838,-0.23028915846494247
1499369121792,-0.24249637598229956,0.9286640726329445,-0.23004501411459533
1499369121808,-0.24261844815747313,0.9284199282825973,-0.23089951934081032
1499369121824,-0.24591439688715955,0.9276874952315559,-0.22906843671320676
1499369121840,-0.24457160296025027,0.9290302891584652,-0.22577248798352034
1499369121856,-0.24383916990920884,0.9285420004577709,-0.22833600366216533
1499369121872,-0.242374303807126,0.9331807431143666,-0.23212024109254603
1499369121888,-0.2453040360112917,0.9335469596398873,-0.23248645761806674
1499369121904,-0.2444495307850767,0.932204165712978,-0.23126573586633103
1499369121920,-0.24310673685816742,0.932204165712978,-0.23285267414358746
1499369121936,-0.24115358205539028,0.9307392996108952,-0.2310215915159839
1499369121952,-0.24139772640573742,0.9293965056839859,-0.23077744716563675
1499369121968,-0.24249637598229956,0.9284199282825973,-0.22870222018768604
1499369121984,-0.2427405203326467,0.9291523613336388,-0.23199816891737246
1499369122000,-0.24335088120851456,0.9301289387350273,-0.23285267414358746
1499369122016,-0.24225223163195242,0.9302510109102009,-0.23285267414358746
1499369122032,-0.242374303807126,0.9302510109102009,-0.2313878080415046
1499369122048,-0.24249637598229956,0.9319600213626309,-0.23334096284428174
1499369122064,-0.24298466468299385,0.9331807431143666,-0.23236438544289317
1499369122080,-0.24249637598229956,0.9334248874647137,-0.23089951934081032
1499369122096,-0.2418860151064317,0.9311055161364159,-0.23028915846494247
1499369122112,-0.2418860151064317,0.9290302891584652,-0.2318760967421989
1499369122128,-0.2427405203326467,0.9292744335088123,-0.23114366369115746
1499369122144,-0.240665293354696,0.9302510109102009,-0.23358510719462888
1499369122160,-0.24176394293125814,0.9308613717860688,-0.23297474631876103
1499369122176,-0.243228809033341,0.931349660486763,-0.23321889066910817
1499369122192,-0.24090943770504314,0.9325703822384988,-0.23041123064011604
1499369122208,-0.23883421072709243,0.9271992065308616,-0.23077744716563675
1499369122224,-0.2410315098802167,0.9254901960784316,-0.23065537499046318
1499369122240,-0.2453040360112917,0.9291523613336388,-0.23163195239185175
1499369122256,-0.2461585412375067,0.9336690318150609,-0.23004501411459533
1499369122272,-0.24505989166094455,0.9325703822384988,-0.23334096284428174
1499369122288,-0.24371709773403527,0.9309834439612423,-0.23504997329671173
1499369122304,-0.24200808728160528,0.9281757839322502,-0.23370717936980245
1499369122320,-0.243228809033341,0.9303730830853745,-0.23297474631876103
1499369122336,-0.24505989166094455,0.9306172274357216,-0.23260852979324032
1499369122352,-0.24286259250782027,0.9302510109102009,-0.23468375677119102
1499369122368,-0.24225223163195242,0.9285420004577709,-0.2334630350194553
1499369122384,-0.23932249942778672,0.9285420004577709,-0.23260852979324032
1499369122400,-0.242374303807126,0.928786144808118,-0.2348058289463646
1499369122416,-0.2427405203326467,0.9276874952315559,-0.22906843671320676
1499369122432,-0.239810788128481,0.9279316395819031,-0.23163195239185175
1499369122448,-0.24213015945677885,0.932204165712978,-0.23456168459601745
1499369122464,-0.24383916990920884,0.9340352483405816,-0.2351720454718853
1499369122480,-0.2439612420843824,0.9319600213626309,-0.23236438544289317
1499369122496,-0.24310673685816742,0.9326924544136723,-0.2334630350194553
1499369122512,-0.243228809033341,0.9317158770122838,-0.23504997329671173
1499369122528,-0.242374303807126,0.9290302891584652,-0.23578240634775316
1499369122544,-0.24408331425955598,0.9293965056839859,-0.23199816891737246
1499369122560,-0.24383916990920884,0.9295185778591595,-0.2318760967421989
1499369122576,-0.2435950255588617,0.9279316395819031,-0.23163195239185175
1499369122592,-0.24261844815747313,0.9263447013046466,-0.2305333028152896
1499369122608,-0.24054322117952243,0.9285420004577709,-0.2322423132677196
1499369122624,-0.24164187075608456,0.9308613717860688,-0.23456168459601745
1499369122640,-0.243228809033341,0.9323262378881516,-0.23236438544289317
1499369122656,-0.24298466468299385,0.9312275883115895,-0.23236438544289317
1499369122672,-0.2427405203326467,0.9300068665598538,-0.23382925154497602
1499369122688,-0.24298466468299385,0.930495155260548,-0.23126573586633103
1499369122704,-0.24383916990920884,0.931349660486763,-0.23321889066910817
1499369122720,-0.2435950255588617,0.9298847943846802,-0.23321889066910817
1499369122736,-0.2453040360112917,0.9301289387350273,-0.23089951934081032
1499369122752,-0.24579232471198598,0.9326924544136723,-0.22858014801251247
1499369122768,-0.24225223163195242,0.9336690318150609,-0.23150988021667818
1499369122784,-0.24042114900434886,0.9307392996108952,-0.2368810559243153
1499369122800,-0.2377355611505303,0.9242694743266959,-0.23443961242084388
1499369122816,-0.2410315098802167,0.9256122682536052,-0.23419546807049674
1499369122832,-0.2427405203326467,0.9328145265888459,-0.23541618982223245
1499369122848,-0.24213015945677885,0.9362325474937059,-0.2334630350194553
1499369122864,-0.2377355611505303,0.933058670939193,-0.23358510719462888
1499369122880,-0.23883421072709243,0.9281757839322502,-0.23114366369115746
1499369122896,-0.24310673685816742,0.9276874952315559,-0.2284580758373389
1499369122912,-0.2456702525368124,0.928786144808118,-0.23028915846494247
1499369122928,-0.243228809033341,0.928786144808118,-0.22992294193942175
1499369122944,-0.24225223163195242,0.9275654230563823,-0.2289463645380332
1499369122960,-0.24286259250782027,0.9276874952315559,-0.2322423132677196
1499369122976,-0.2427405203326467,0.9276874952315559,-0.22980086976424818
1499369122992,-0.24176394293125814,0.9274433508812088,-0.22980086976424818
1499369123008,-0.24005493247882814,0.9284199282825973,-0.22943465323872747
1499369123024,-0.24139772640573742,0.9306172274357216,-0.23334096284428174
1499369123040,-0.24139772640573742,0.9326924544136723,-0.23541618982223245
1499369123056,-0.24139772640573742,0.933058670939193,-0.23443961242084388
1499369123072,-0.24371709773403527,0.932204165712978,-0.2356603341725796
1499369123088,-0.24213015945677885,0.9315938048371102,-0.23590447852292673
1499369123104,-0.24176394293125814,0.9323262378881516,-0.23797970550087744
1499369123120,-0.243228809033341,0.930495155260548,-0.23578240634775316
1499369123136,-0.24408331425955598,0.9297627222095066,-0.23236438544289317
1499369123152,-0.24261844815747313,0.9293965056839859,-0.23627069504844744
1499369123168,-0.2410315098802167,0.9276874952315559,-0.2368810559243153
1499369123184,-0.24054322117952243,0.9268329900053409,-0.2330968184939346
1499369123200,-0.24029907682917528,0.9290302891584652,-0.23627069504844744
1499369123216,-0.24054322117952243,0.9320820935378045,-0.23651483939879459
1499369123232,-0.24176394293125814,0.9308613717860688,-0.23614862287327387
1499369123248,-0.24139772640573742,0.9309834439612423,-0.23578240634775316
1499369123264,-0.2418860151064317,0.9311055161364159,-0.23712520027466244
1499369123280,-0.24127565423056385,0.930495155260548,-0.23273060196841389
1499369123296,-0.24225223163195242,0.9306172274357216,-0.23150988021667818
1499369123312,-0.24139772640573742,0.9319600213626309,-0.23468375677119102
1499369123328,-0.24176394293125814,0.9292744335088123,-0.2351720454718853
1499369123344,-0.23932249942778672,0.9320820935378045,-0.23492790112153816
1499369123360,-0.23993286030365457,0.934767681391623,-0.23260852979324032
1499369123376,-0.24029907682917528,0.9320820935378045,-0.2339513237201496
1499369123392,-0.240665293354696,0.9252460517280845,-0.2348058289463646
1499369123408,-0.24176394293125814,0.9292744335088123,-0.23321889066910817
1499369123424,-0.2439612420843824,0.9320820935378045,-0.23334096284428174
1499369123440,-0.2439612420843824,0.9334248874647137,-0.23041123064011604
1499369123456,-0.24127565423056385,0.9323262378881516,-0.2318760967421989
1499369123472,-0.24115358205539028,0.9282978561074238,-0.23541618982223245
1499369123488,-0.24347295338368813,0.9269550621805145,-0.23041123064011604
1499369123504,-0.242374303807126,0.9315938048371102,-0.22919050888838033
1499369123520,-0.24286259250782027,0.9320820935378045,-0.2310215915159839
1499369123536,-0.241519798580911,0.9301289387350273,-0.22821393148699176
1499369123552,-0.240665293354696,0.9286640726329445,-0.23114366369115746
1499369123568,-0.240665293354696,0.9312275883115895,-0.23236438544289317
1499369123584,-0.24408331425955598,0.931349660486763,-0.22906843671320676
1499369123600,-0.24127565423056385,0.9308613717860688,-0.22943465323872747
1499369123616,-0.24213015945677885,0.932204165712978,-0.22748149843595034
1499369123632,-0.2448157473105974,0.9335469596398873,-0.23150988021667818
1499369123648,-0.24469367513542384,0.9333028152895402,-0.22687113756008248
1499369123664,-0.243228809033341,0.9324483100633252,-0.22772564278629748
1499369123680,-0.24139772640573742,0.9325703822384988,-0.2267490653849089
1499369123696,-0.24213015945677885,0.9301289387350273,-0.2296787975890746
1499369123712,-0.24115358205539028,0.9298847943846802,-0.22711528191042962
1499369123728,-0.24090943770504314,0.930495155260548,-0.2289463645380332
1499369123744,-0.240665293354696,0.9295185778591595,-0.23028915846494247
1499369123760,-0.24029907682917528,0.9292744335088123,-0.23089951934081032
1499369123776,-0.2401770046540017,0.9315938048371102,-0.23028915846494247
1499369123792,-0.24335088120851456,0.9318379491874573,-0.22943465323872747
1499369123808,-0.24347295338368813,0.9328145265888459,-0.22577248798352034
1499369123824,-0.24347295338368813,0.9328145265888459,-0.2263828488593882
1499369123840,-0.24420538643472955,0.9329365987640195,-0.22601663233386748
1499369123856,-0.24335088120851456,0.9334248874647137,-0.22528419928282606
1499369123872,-0.24518196383611812,0.9326924544136723,-0.22613870450904106
1499369123888,-0.24127565423056385,0.9311055161364159,-0.22528419928282606
1499369123904,-0.2444495307850767,0.930495155260548,-0.22735942626077676
1499369123920,-0.24310673685816742,0.9325703822384988,-0.2289463645380332
1499369123936,-0.24176394293125814,0.9344014648661023,-0.22613870450904106
1499369123952,-0.24261844815747313,0.9297627222095066,-0.2251621271076525
1499369123968,-0.23956664377813386,0.9263447013046466,-0.22699320973525605
1499369123984,-0.24249637598229956,0.9298847943846802,-0.22784771496147105
1499369124000,-0.24689097428854812,0.9396505683985659,-0.2284580758373389
1499369124016,-0.24664682993820097,0.9389181353475244,-0.2272373540856032
1499369124032,-0.24505989166094455,0.9326924544136723,-0.2255283436331732
1499369124048,-0.24408331425955598,0.9265888456549938,-0.22418554970626392
1499369124064,-0.24249637598229956,0.9281757839322502,-0.22125581750209822
1499369124080,-0.24432745860990313,0.9344014648661023,-0.22186617837796607
1499369124096,-0.24408331425955598,0.9333028152895402,-0.22357518883039607
1499369124112,-0.24164187075608456,0.9307392996108952,-0.22284275577935464
1499369124128,-0.24090943770504314,0.9300068665598538,-0.22308690012970178
1499369124144,-0.2448157473105974,0.9320820935378045,-0.22223239490348679
1499369124160,-0.2439612420843824,0.933058670939193,-0.2225986114290075
1499369124176,-0.24286259250782027,0.9320820935378045,-0.22528419928282606
1499369124192,-0.2453040360112917,0.9341573205157552,-0.22320897230487535
1499369124208,-0.24798962386511025,0.9353780422674909,-0.22479591058213177
1499369124224,-0.24835584039063097,0.9337911039902345,-0.2243076218814375
1499369124240,-0.2465247577630274,0.9318379491874573,-0.2255283436331732
1499369124256,-0.24298466468299385,0.9284199282825973,-0.2243076218814375
1499369124272,-0.2418860151064317,0.9290302891584652,-0.22565041580834677
1499369124288,-0.243228809033341,0.9336690318150609,-0.22626077668421463
1499369124304,-0.24261844815747313,0.9326924544136723,-0.2272373540856032
1499369124320,-0.24383916990920884,0.9307392996108952,-0.2258945601586939
1499369124336,-0.24432745860990313,0.9319600213626309,-0.2243076218814375
1499369124352,-0.24603646906233312,0.9303730830853745,-0.2243076218814375
1499369124368,-0.24591439688715955,0.9319600213626309,-0.22198825055313964
1499369124384,-0.24542610818646526,0.9326924544136723,-0.22149996185244536
1499369124400,-0.24432745860990313,0.9353780422674909,-0.22149996185244536
1499369124416,-0.24689097428854812,0.9350118257419702,-0.2255283436331732
1499369124432,-0.24640268558785383,0.9335469596398873,-0.22442969405661106
1499369124448,-0.24579232471198598,0.9324483100633252,-0.22357518883039607
1499369124464,-0.24347295338368813,0.9320820935378045,-0.22442969405661106
1499369124480,-0.24505989166094455,0.9306172274357216,-0.22308690012970178
1499369124496,-0.24261844815747313,0.9331807431143666,-0.2258945601586939
1499369124512,-0.241519798580911,0.9325703822384988,-0.2217441062027925
1499369124528,-0.24213015945677885,0.9279316395819031,-0.22101167315175108
1499369124544,-0.24261844815747313,0.9270771343556881,-0.22406347753109035
1499369124560,-0.24701304646372169,0.9357442587930116,-0.22601663233386748
1499369124576,-0.24835584039063097,0.9438010223544673,-0.2255283436331732
1499369124592,-0.24432745860990313,0.9392843518730452,-0.22406347753109035
1499369124608,-0.24054322117952243,0.9312275883115895,-0.22455176623178463
1499369124624,-0.24005493247882814,0.9284199282825973,-0.22406347753109035
1499369124640,-0.24139772640573742,0.9340352483405816,-0.2229648279545282
1499369124656,-0.24261844815747313,0.9342793926909287,-0.22333104448004892
1499369124672,-0.2394445716029603,0.928786144808118,-0.22235446707866036
1499369124688,-0.23785763332570387,0.9254901960784316,-0.22235446707866036
1499369124704,-0.24286259250782027,0.9298847943846802,-0.22162203402761893
1499369124720,-0.24725719081406883,0.934767681391623,-0.2213778896772718
1499369124736,-0.2461585412375067,0.9362325474937059,-0.2200350957503625
1499369124752,-0.24383916990920884,0.9335469596398873,-0.22394140535591678
1499369124768,-0.24432745860990313,0.9346456092164495,-0.22357518883039607
1499369124784,-0.24408331425955598,0.9350118257419702,-0.2229648279545282
1499369124800,-0.24310673685816742,0.9348897535667966,-0.2243076218814375
1499369124816,-0.24310673685816742,0.9344014648661023,-0.22455176623178463
1499369124832,-0.24298466468299385,0.9315938048371102,-0.22613870450904106
1499369124848,-0.24164187075608456,0.9289082169832916,-0.22406347753109035
1499369124864,-0.24420538643472955,0.929640650034333,-0.2267490653849089
1499369124880,-0.24542610818646526,0.9306172274357216,-0.22504005493247892
1499369124896,-0.24469367513542384,0.9297627222095066,-0.22601663233386748
1499369124912,-0.24518196383611812,0.9314717326619366,-0.22479591058213177
1499369124928,-0.24469367513542384,0.933913176165408,-0.22784771496147105
1499369124944,-0.24408331425955598,0.9341573205157552,-0.2251621271076525
1499369124960,-0.24518196383611812,0.9342793926909287,-0.22418554970626392
1499369124976,-0.2448157473105974,0.9350118257419702,-0.2243076218814375
1499369124992,-0.24371709773403527,0.9326924544136723,-0.22626077668421463
1499369125008,-0.24286259250782027,0.9314717326619366,-0.22357518883039607
1499369125024,-0.2401770046540017,0.9307392996108952,-0.22540627145799963
1499369125040,-0.24164187075608456,0.9325703822384988,-0.22748149843595034
1499369125056,-0.24139772640573742,0.9318379491874573,-0.22626077668421463
1499369125072,-0.24127565423056385,0.933058670939193,-0.2272373540856032
1499369125088,-0.24078736552986957,0.9318379491874573,-0.2234531166552225
1499369125104,-0.240665293354696,0.9289082169832916,-0.22650492103456177
1499369125120,-0.23932249942778672,0.9252460517280845,-0.22784771496147105
1499369125136,-0.24457160296025027,0.9319600213626309,-0.22699320973525605
1499369125152,-0.24786755168993668,0.9379415579461359,-0.22418554970626392
1499369125168,-0.24640268558785383,0.936476691844053,-0.2293125810635539
1499369125184,-0.24310673685816742,0.9331807431143666,-0.22882429236285962
1499369125200,-0.24347295338368813,0.9268329900053409,-0.22821393148699176
1499369125216,-0.24298466468299385,0.929640650034333,-0.22650492103456177
1499369125232,-0.243228809033341,0.9334248874647137,-0.2296787975890746
1499369125248,-0.24249637598229956,0.9335469596398873,-0.22870222018768604
1499369125264,-0.24029907682917528,0.9302510109102009,-0.2272373540856032
1499369125280,-0.23932249942778672,0.9286640726329445,-0.2267490653849089
1499369125296,-0.24310673685816742,0.9285420004577709,-0.22613870450904106
1499369125312,-0.24310673685816742,0.9303730830853745,-0.22455176623178463
1499369125328,-0.2418860151064317,0.929640650034333,-0.2284580758373389
1499369125344,-0.243228809033341,0.9320820935378045,-0.23114366369115746
1499369125360,-0.2465247577630274,0.9328145265888459,-0.23236438544289317
1499369125376,-0.24310673685816742,0.9312275883115895,-0.22943465323872747
1499369125392,-0.24213015945677885,0.933058670939193,-0.22870222018768604
1499369125408,-0.2439612420843824,0.9324483100633252,-0.23236438544289317
1499369125424,-0.2418860151064317,0.9298847943846802,-0.22919050888838033
1499369125440,-0.24164187075608456,0.929640650034333,-0.23163195239185175
1499369125456,-0.24249637598229956,0.930495155260548,-0.23004501411459533
1499369125472,-0.24420538643472955,0.9302510109102009,-0.2301670862897689
1499369125488,-0.24225223163195242,0.9292744335088123,-0.23065537499046318
1499369125504,-0.241519798580911,0.9282978561074238,-0.23297474631876103
1499369125520,-0.24115358205539028,0.9307392996108952,-0.23321889066910817
1499369125536,-0.24176394293125814,0.9334248874647137,-0.23126573586633103
1499369125552,-0.24335088120851456,0.9324483100633252,-0.23126573586633103
1499369125568,-0.24164187075608456,0.9300068665598538,-0.22906843671320676
1499369125584,-0.24347295338368813,0.9306172274357216,-0.22955672541390104
1499369125600,-0.24286259250782027,0.9302510109102009,-0.23248645761806674
1499369125616,-0.24298466468299385,0.9320820935378045,-0.23077744716563675
1499369125632,-0.24200808728160528,0.9308613717860688,-0.23248645761806674
1499369125648,-0.24298466468299385,0.9308613717860688,-0.23199816891737246
1499369125664,-0.2427405203326467,0.9312275883115895,-0.22992294193942175
1499369125680,-0.24176394293125814,0.9306172274357216,-0.22858014801251247
1499369125696,-0.2418860151064317,0.9251239795529109,-0.23297474631876103
1499369125712,-0.24347295338368813,0.9281757839322502,-0.23358510719462888
1499369125728,-0.24628061341268026,0.9326924544136723,-0.23273060196841389
1499369125744,-0.24701304646372169,0.9345235370412759,-0.23260852979324032
1499369125760,-0.24432745860990313,0.934767681391623,-0.23199816891737246
1499369125776,-0.24176394293125814,0.9298847943846802,-0.23321889066910817
1499369125792,-0.24139772640573742,0.9268329900053409,-0.23236438544289317
1499369125808,-0.242374303807126,0.9300068665598538,-0.22955672541390104
1499369125824,-0.24164187075608456,0.9311055161364159,-0.2293125810635539
1499369125840,-0.23846799420157172,0.9290302891584652,-0.2351720454718853
1499369125856,-0.24005493247882814,0.9298847943846802,-0.23236438544289317
1499369125872,-0.24054322117952243,0.9324483100633252,-0.23089951934081032
1499369125888,-0.24371709773403527,0.9331807431143666,-0.23004501411459533
1499369125904,-0.24579232471198598,0.9301289387350273,-0.23065537499046318
1499369125920,-0.24298466468299385,0.9289082169832916,-0.23212024109254603
1499369125936,-0.24298466468299385,0.9307392996108952,-0.2348058289463646
1499369125952,-0.24432745860990313,0.9324483100633252,-0.23273060196841389
1499369125968,-0.242374303807126,0.9317158770122838,-0.2318760967421989
1499369125984,-0.24054322117952243,0.9325703822384988,-0.23236438544289317
1499369126000,-0.23846799420157172,0.9306172274357216,-0.23468375677119102
1499369126016,-0.23712520027466244,0.9301289387350273,-0.23382925154497602
1499369126032,-0.23675898374914173,0.931349660486763,-0.2356603341725796
1499369126048,-0.2356603341725796,0.9319600213626309,-0.23334096284428174
1499369126064,-0.2348058289463646,0.9280537117570766,-0.23236438544289317
1499369126080,-0.23419546807049674,0.9269550621805145,-0.23407339589532317
1499369126096,-0.23492790112153816,0.929640650034333,-0.23163195239185175
1499369126112,-0.23785763332570387,0.9315938048371102,-0.2339513237201496
1499369126128,-0.23871213855191886,0.9325703822384988,-0.23077744716563675
1499369126144,-0.24139772640573742,0.9333028152895402,-0.23163195239185175
1499369126160,-0.24090943770504314,0.9336690318150609,-0.23077744716563675
1499369126176,-0.24213015945677885,0.9325703822384988,-0.23028915846494247
1499369126192,-0.24042114900434886,0.9319600213626309,-0.23260852979324032
1499369126208,-0.240665293354696,0.9309834439612423,-0.2310215915159839
1499369126224,-0.2385900663767453,0.9292744335088123,-0.23273060196841389
1499369126240,-0.2401770046540017,0.9306172274357216,-0.23236438544289317
1499369126256,-0.24005493247882814,0.932204165712978,-0.23468375677119102
1499369126272,-0.24127565423056385,0.9315938048371102,-0.2318760967421989
1499369126288,-0.24042114900434886,0.9264667734798202,-0.23089951934081032
1499369126304,-0.241519798580911,0.9247577630273902,-0.2334630350194553
1499369126320,-0.24493781948577098,0.9315938048371102,-0.2351720454718853
1499369126336,-0.24383916990920884,0.9367208361944002,-0.23199816891737246
1499369126352,-0.24078736552986957,0.934767681391623,-0.23236438544289317
1499369126368,-0.23920042725261315,0.933058670939193,-0.23199816891737246
1499369126384,-0.23993286030365457,0.9282978561074238,-0.23089951934081032
1499369126400,-0.24176394293125814,0.9301289387350273,-0.23150988021667818
1499369126416,-0.23797970550087744,0.931349660486763,-0.22870222018768604
1499369126432,-0.23639276722362101,0.9309834439612423,-0.2318760967421989
1499369126448,-0.23578240634775316,0.9307392996108952,-0.23163195239185175
1499369126464,-0.2356603341725796,0.9280537117570766,-0.22980086976424818
1499369126480,-0.23712520027466244,0.9279316395819031,-0.23126573586633103
1499369126496,-0.23749141680018315,0.9297627222095066,-0.22992294193942175
1499369126512,-0.23651483939879459,0.9293965056839859,-0.23114366369115746
1499369126528,-0.238956282902266,0.9328145265888459,-0.23321889066910817
1499369126544,-0.2410315098802167,0.934767681391623,-0.23419546807049674
1499369126560,-0.2401770046540017,0.9344014648661023,-0.23114366369115746
1499369126576,-0.240665293354696,0.933058670939193,-0.23419546807049674
1499369126592,-0.24078736552986957,0.9315938048371102,-0.23382925154497602
1499369126608,-0.23968871595330743,0.9307392996108952,-0.23663691157396816
1499369126624,-0.238101777676051,0.9301289387350273,-0.2313878080415046
1499369126640,-0.23822384985122458,0.9307392996108952,-0.23382925154497602
1499369126656,-0.2410315098802167,0.9295185778591595,-0.23382925154497602
1499369126672,-0.23761348897535672,0.9286640726329445,-0.2313878080415046
1499369126688,-0.23932249942778672,0.929640650034333,-0.23382925154497602
1499369126704,-0.23871213855191886,0.9302510109102009,-0.23492790112153816
1499369126720,-0.24005493247882814,0.9329365987640195,-0.23529411764705888
1499369126736,-0.24054322117952243,0.9350118257419702,-0.23236438544289317
1499369126752,-0.24078736552986957,0.9342793926909287,-0.23163195239185175
1499369126768,-0.2418860151064317,0.9317158770122838,-0.23285267414358746
1499369126784,-0.240665293354696,0.9298847943846802,-0.22882429236285962
1499369126800,-0.24078736552986957,0.928786144808118,-0.23004501411459533
1499369126816,-0.24115358205539028,0.929640650034333,-0.23407339589532317
1499369126832,-0.24115358205539028,0.9331807431143666,-0.22882429236285962
1499369126848,-0.24029907682917528,0.933913176165408,-0.2339513237201496
1499369126864,-0.23932249942778672,0.9328145265888459,-0.23150988021667818
1499369126880,-0.23834592202639815,0.9273212787060352,-0.2343175402456703
1499369126896,-0.23846799420157172,0.9254901960784316,-0.2301670862897689
1499369126912,-0.24078736552986957,0.9318379491874573,-0.23443961242084388
1499369126928,-0.24310673685816742,0.9342793926909287,-0.22992294193942175
1499369126944,-0.23932249942778672,0.934767681391623,-0.23163195239185175
1499369126960,-0.23883421072709243,0.9307392996108952,-0.2322423132677196
1499369126976,-0.24200808728160528,0.9306172274357216,-0.23150988021667818
1499369126992,-0.24176394293125814,0.932204165712978,-0.2289463645380332
1499369127008,-0.24261844815747313,0.9326924544136723,-0.22613870450904106
1499369127024,-0.23871213855191886,0.9314717326619366,-0.2305333028152896
1499369127040,-0.2368810559243153,0.9284199282825973,-0.23199816891737246
1499369127056,-0.2385900663767453,0.9285420004577709,-0.2289463645380332
1499369127072,-0.24005493247882814,0.9293965056839859,-0.23028915846494247
1499369127088,-0.238101777676051,0.9297627222095066,-0.22711528191042962
1499369127104,-0.2394445716029603,0.9286640726329445,-0.2305333028152896
1499369127120,-0.24249637598229956,0.932204165712978,-0.2305333028152896
1499369127136,-0.24261844815747313,0.9352559700923173,-0.23163195239185175
1499369127152,-0.24347295338368813,0.9345235370412759,-0.23077744716563675
1499369127168,-0.24286259250782027,0.9324483100633252,-0.23077744716563675
1499369127184,-0.243228809033341,0.9293965056839859,-0.23334096284428174
1499369127200,-0.24225223163195242,0.9284199282825973,-0.23028915846494247
1499369127216,-0.2427405203326467,0.9295185778591595,-0.23004501411459533
1499369127232,-0.24286259250782027,0.931349660486763,-0.23114366369115746
1499369127248,-0.2435950255588617,0.9306172274357216,-0.2313878080415046
1499369127264,-0.24286259250782027,0.9324483100633252,-0.23065537499046318
1499369127280,-0.243228809033341,0.9331807431143666,-0.22906843671320676
1499369127296,-0.2427405203326467,0.9324483100633252,-0.2272373540856032
1499369127312,-0.24347295338368813,0.9325703822384988,-0.22796978713664462
1499369127328,-0.24493781948577098,0.9340352483405816,-0.23126573586633103
1499369127344,-0.24579232471198598,0.934767681391623,-0.23126573586633103
1499369127360,-0.24469367513542384,0.9334248874647137,-0.22772564278629748
1499369127376,-0.24005493247882814,0.9328145265888459,-0.22784771496147105
1499369127392,-0.23797970550087744,0.9318379491874573,-0.2293125810635539
1499369127408,-0.23761348897535672,0.9309834439612423,-0.22687113756008248
1499369127424,-0.23846799420157172,0.9323262378881516,-0.2289463645380332
1499369127441,-0.240665293354696,0.9320820935378045,-0.22662699320973534
1499369127457,-0.239810788128481,0.9276874952315559,-0.2258945601586939
1499369127473,-0.23932249942778672,0.9280537117570766,-0.2289463645380332
1499369127489,-0.2444495307850767,0.9333028152895402,-0.22601663233386748
1499369127505,-0.2482337682154574,0.9386739909971773,-0.22308690012970178
1499369127520,-0.24518196383611812,0.9355001144426645,-0.22528419928282606
1499369127536,-0.24335088120851456,0.9298847943846802,-0.22284275577935464
1499369127552,-0.241519798580911,0.9269550621805145,-0.22504005493247892
1499369127568,-0.242374303807126,0.9306172274357216,-0.22565041580834677
1499369127584,-0.24298466468299385,0.9344014648661023,-0.22406347753109035
1499369127600,-0.24054322117952243,0.9311055161364159,-0.2258945601586939
1499369127617,-0.238101777676051,0.9300068665598538,-0.22198825055313964
1499369127633,-0.238956282902266,0.9307392996108952,-0.22504005493247892
1499369127649,-0.241519798580911,0.9351338979171437,-0.2208896009765775
1499369127665,-0.241519798580911,0.9342793926909287,-0.22479591058213177
1499369127681,-0.24213015945677885,0.9326924544136723,-0.22235446707866036
1499369127697,-0.24335088120851456,0.9369649805447473,-0.2255283436331732
1499369127713,-0.2448157473105974,0.9372091248950944,-0.2267490653849089
1499369127729,-0.24493781948577098,0.9367208361944002,-0.22565041580834677
1499369127745,-0.2435950255588617,0.9320820935378045,-0.2272373540856032
1499369127761,-0.24042114900434886,0.929640650034333,-0.22504005493247892
1499369127777,-0.241519798580911,0.930495155260548,-0.2267490653849089
1499369127793,-0.24029907682917528,0.9306172274357216,-0.2258945601586939
1499369127809,-0.24078736552986957,0.9318379491874573,-0.22540627145799963
1499369127825,-0.24078736552986957,0.9312275883115895,-0.22394140535591678
1499369127841,-0.2418860151064317,0.9333028152895402,-0.2263828488593882
1499369127857,-0.24176394293125814,0.9335469596398873,-0.22626077668421463
1499369127873,-0.24029907682917528,0.9337911039902345,-0.22504005493247892
1499369127889,-0.24078736552986957,0.9331807431143666,-0.22406347753109035
1499369127905,-0.24078736552986957,0.9340352483405816,-0.22308690012970178
1499369127921,-0.24225223163195242,0.9333028152895402,-0.2234531166552225
1499369127937,-0.24286259250782027,0.9352559700923173,-0.2229648279545282
1499369127953,-0.24335088120851456,0.9345235370412759,-0.22357518883039607
1499369127969,-0.24310673685816742,0.9334248874647137,-0.22613870450904106
1499369127985,-0.23993286030365457,0.9335469596398873,-0.22687113756008248
1499369128001,-0.23907835507743957,0.9329365987640195,-0.22650492103456177
1499369128017,-0.24054322117952243,0.9309834439612423,-0.22211032272831321
1499369128033,-0.2394445716029603,0.9275654230563823,-0.22418554970626392
1499369128049,-0.23785763332570387,0.9280537117570766,-0.2272373540856032
1499369128065,-0.24432745860990313,0.9348897535667966,-0.22613870450904106
1499369128081,-0.24725719081406883,0.9403830014496073,-0.22735942626077676
1499369128097,-0.2439612420843824,0.9359884031433587,-0.2267490653849089
1499369128113,-0.24115358205539028,0.9291523613336388,-0.22528419928282606
1499369128129,-0.2401770046540017,0.9274433508812088,-0.22565041580834677
1499369128145,-0.23932249942778672,0.9326924544136723,-0.22613870450904106
1499369128161,-0.24139772640573742,0.9357442587930116,-0.2243076218814375
1499369128177,-0.24115358205539028,0.931349660486763,-0.22418554970626392
1499369128193,-0.23675898374914173,0.9298847943846802,-0.2251621271076525
1499369128209,-0.23797970550087744,0.9303730830853745,-0.22504005493247892
1499369128225,-0.23907835507743957,0.933913176165408,-0.22577248798352034
1499369128241,-0.24176394293125814,0.9353780422674909,-0.22418554970626392
1499369128257,-0.240665293354696,0.934767681391623,-0.2263828488593882
1499369128273,-0.243228809033341,0.9344014648661023,-0.22833600366216533
1499369128289,-0.240665293354696,0.9337911039902345,-0.2293125810635539
1499369128305,-0.24286259250782027,0.9325703822384988,-0.2284580758373389
1499369128321,-0.24176394293125814,0.9336690318150609,-0.2301670862897689
1499369128337,-0.23993286030365457,0.9314717326619366,-0.2289463645380332
1499369128353,-0.239810788128481,0.9312275883115895,-0.22943465323872747
1499369128369,-0.24078736552986957,0.9323262378881516,-0.22992294193942175
1499369128385,-0.2427405203326467,0.9314717326619366,-0.22821393148699176
1499369128401,-0.2418860151064317,0.9295185778591595,-0.2267490653849089
1499369128417,-0.24078736552986957,0.9298847943846802,-0.2284580758373389
1499369128433,-0.24139772640573742,0.9328145265888459,-0.2313878080415046
1499369128449,-0.241519798580911,0.933058670939193,-0.22906843671320676
1499369128465,-0.24310673685816742,0.9312275883115895,-0.22858014801251247
1499369128481,-0.242374303807126,0.9308613717860688,-0.22772564278629748
1499369128497,-0.2418860151064317,0.9311055161364159,-0.2284580758373389
1499369128513,-0.241519798580911,0.932204165712978,-0.22833600366216533
1499369128529,-0.24225223163195242,0.9323262378881516,-0.2267490653849089
1499369128545,-0.24042114900434886,0.9329365987640195,-0.22699320973525605
1499369128561,-0.23883421072709243,0.932204165712978,-0.22980086976424818
1499369128577,-0.23663691157396816,0.9333028152895402,-0.23285267414358746
1499369128593,-0.2368810559243153,0.9351338979171437,-0.2305333028152896
1499369128609,-0.23663691157396816,0.9323262378881516,-0.22980086976424818
1499369128625,-0.237247272449836,0.9284199282825973,-0.23163195239185175
1499369128641,-0.23797970550087744,0.9284199282825973,-0.23248645761806674
1499369128657,-0.2427405203326467,0.9335469596398873,-0.23077744716563675
1499369128673,-0.24383916990920884,0.9353780422674909,-0.23077744716563675
1499369128689,-0.24005493247882814,0.9326924544136723,-0.2296787975890746
1499369128705,-0.23846799420157172,0.9284199282825973,-0.23077744716563675
1499369128721,-0.24054322117952243,0.9256122682536052,-0.23004501411459533
1499369128737,-0.23907835507743957,0.9293965056839859,-0.2301670862897689
1499369128753,-0.23932249942778672,0.9336690318150609,-0.23407339589532317
1499369128769,-0.23920042725261315,0.9337911039902345,-0.2334630350194553
1499369128785,-0.2377355611505303,0.9291523613336388,-0.2293125810635539
1499369128801,-0.237247272449836,0.9282978561074238,-0.23163195239185175
1499369128817,-0.23956664377813386,0.9289082169832916,-0.22919050888838033
1499369128833,-0.241519798580911,0.9303730830853745,-0.23004501411459533
1499369128849,-0.23956664377813386,0.932204165712978,-0.23041123064011604
1499369128865,-0.24029907682917528,0.9306172274357216,-0.23358510719462888
1499369128881,-0.2418860151064317,0.9307392996108952,-0.2330968184939346
1499369128897,-0.241519798580911,0.9307392996108952,-0.23114366369115746
1499369128913,-0.23920042725261315,0.9318379491874573,-0.23236438544289317
1499369128929,-0.23797970550087744,0.931349660486763,-0.2348058289463646
1499369128945,-0.24054322117952243,0.9302510109102009,-0.23334096284428174
1499369128961,-0.23968871595330743,0.9324483100633252,-0.23370717936980245
1499369128977,-0.23797970550087744,0.9315938048371102,-0.23675898374914173
1499369128993,-0.23846799420157172,0.9320820935378045,-0.23846799420157172
1499369129009,-0.23675898374914173,0.9303730830853745,-0.2385900663767453
1499369129025,-0.2385900663767453,0.9297627222095066,-0.2348058289463646
1499369129041,-0.23712520027466244,0.9318379491874573,-0.2360265506981003
1499369129057,-0.2385900663767453,0.9314717326619366,-0.2343175402456703
1499369129073,-0.23846799420157172,0.9326924544136723,-0.23297474631876103
1499369129089,-0.23968871595330743,0.9325703822384988,-0.2330968184939346
1499369129105,-0.239810788128481,0.931349660486763,-0.2351720454718853
1499369129121,-0.23920042725261315,0.9308613717860688,-0.23614862287327387
1499369129137,-0.23846799420157172,0.9300068665598538,-0.2343175402456703
1499369129153,-0.23761348897535672,0.9274433508812088,-0.2334630350194553
1499369129169,-0.24042114900434886,0.9295185778591595,-0.23212024109254603
1499369129185,-0.2368810559243153,0.9318379491874573,-0.23175402456702532
1499369129201,-0.2356603341725796,0.9303730830853745,-0.2313878080415046
1499369129217,-0.23675898374914173,0.9268329900053409,-0.23578240634775316
1499369129233,-0.23797970550087744,0.9289082169832916,-0.23614862287327387
1499369129249,-0.2410315098802167,0.933913176165408,-0.23578240634775316
1499369129265,-0.24054322117952243,0.9351338979171437,-0.2330968184939346
1499369129281,-0.238956282902266,0.9357442587930116,-0.23627069504844744
1499369129297,-0.23883421072709243,0.9323262378881516,-0.2348058289463646
1499369129313,-0.23956664377813386,0.9285420004577709,-0.23273060196841389
1499369129329,-0.24090943770504314,0.9295185778591595,-0.2330968184939346
1499369129345,-0.23920042725261315,0.9333028152895402,-0.23553826199740602
1499369129361,-0.23712520027466244,0.9318379491874573,-0.2377355611505303
1499369129377,-0.2360265506981003,0.9306172274357216,-0.2356603341725796
1499369129393,-0.23614862287327387,0.9280537117570766,-0.237247272449836
1499369129409,-0.23822384985122458,0.9279316395819031,-0.23675898374914173
1499369129425,-0.23920042725261315,0.9289082169832916,-0.23212024109254603
1499369129441,-0.23797970550087744,0.9276874952315559,-0.23273060196841389
1499369129457,-0.24115358205539028,0.9293965056839859,-0.23492790112153816
1499369129473,-0.24115358205539028,0.9325703822384988,-0.23590447852292673
1499369129489,-0.23993286030365457,0.9329365987640195,-0.2351720454718853
1499369129505,-0.24029907682917528,0.9340352483405816,-0.23504997329671173
1499369129521,-0.24029907682917528,0.9319600213626309,-0.2368810559243153
1499369129537,-0.23883421072709243,0.9298847943846802,-0.238101777676051
1499369129553,-0.238956282902266,0.9318379491874573,-0.23797970550087744
1499369129569,-0.23797970550087744,0.9333028152895402,-0.23663691157396816
1499369129585,-0.238101777676051,0.9300068665598538,-0.23846799420157172
1499369129601,-0.23834592202639815,0.928786144808118,-0.2360265506981003
1499369129617,-0.238101777676051,0.9293965056839859,-0.23651483939879459
1499369129633,-0.2377355611505303,0.9301289387350273,-0.2351720454718853
1499369129649,-0.23883421072709243,0.9293965056839859,-0.23749141680018315
1499369129665,-0.24042114900434886,0.9308613717860688,-0.2360265506981003
1499369129681,-0.24029907682917528,0.930495155260548,-0.23700312809948887
1499369129697,-0.23932249942778672,0.9298847943846802,-0.23749141680018315
1499369129713,-0.23968871595330743,0.9300068665598538,-0.23358510719462888
1499369129729,-0.23846799420157172,0.9292744335088123,-0.23321889066910817
1499369129745,-0.238101777676051,0.9307392996108952,-0.23553826199740602
1499369129761,-0.237247272449836,0.931349660486763,-0.2334630350194553
1499369129777,-0.23700312809948887,0.9335469596398873,-0.23749141680018315
1499369129793,-0.23712520027466244,0.9317158770122838,-0.23382925154497602
1499369129809,-0.2356603341725796,0.9303730830853745,-0.23700312809948887
1499369129825,-0.23675898374914173,0.9256122682536052,-0.23529411764705888
1499369129841,-0.2394445716029603,0.9279316395819031,-0.23675898374914173
1499369129857,-0.24371709773403527,0.933058670939193,-0.23834592202639815
1499369129873,-0.24090943770504314,0.9337911039902345,-0.23382925154497602
1499369129889,-0.23797970550087744,0.9303730830853745,-0.2318760967421989
1499369129905,-0.23749141680018315,0.9289082169832916,-0.23736934462500958
1499369129921,-0.239810788128481,0.9281757839322502,-0.23456168459601745
1499369129937,-0.2385900663767453,0.9319600213626309,-0.2351720454718853
1499369129953,-0.23761348897535672,0.9317158770122838,-0.2343175402456703
1499369129969,-0.23578240634775316,0.9298847943846802,-0.23492790112153816
1499369129985,-0.2360265506981003,0.9268329900053409,-0.23443961242084388
1499369130001,-0.23761348897535672,0.9275654230563823,-0.23504997329671173
1499369130017,-0.23846799420157172,0.9284199282825973,-0.22992294193942175
1499369130033,-0.23663691157396816,0.9282978561074238,-0.23358510719462888
1499369130049,-0.23627069504844744,0.931349660486763,-0.23334096284428174
1499369130065,-0.23907835507743957,0.9335469596398873,-0.2368810559243153
1499369130081,-0.239810788128481,0.9331807431143666,-0.23920042725261315
1499369130097,-0.23822384985122458,0.9333028152895402,-0.23553826199740602
1499369130113,-0.2377355611505303,0.9324483100633252,-0.23797970550087744
1499369130129,-0.23907835507743957,0.9298847943846802,-0.23675898374914173
1499369130145,-0.24005493247882814,0.9295185778591595,-0.238101777676051
1499369130161,-0.23871213855191886,0.9290302891584652,-0.23675898374914173
1499369130177,-0.23883421072709243,0.9291523613336388,-0.23700312809948887
1499369130193,-0.238956282902266,0.9279316395819031,-0.2377355611505303
1499369130209,-0.23907835507743957,0.9278095674067295,-0.23736934462500958
1499369130225,-0.23761348897535672,0.9268329900053409,-0.23541618982223245
1499369130241,-0.2377355611505303,0.9292744335088123,-0.23443961242084388
1499369130257,-0.23871213855191886,0.932204165712978,-0.2351720454718853
1499369130273,-0.24078736552986957,0.934767681391623,-0.23663691157396816
1499369130289,-0.23920042725261315,0.932204165712978,-0.23627069504844744
1499369130305,-0.23834592202639815,0.9315938048371102,-0.2368810559243153
1499369130321,-0.238956282902266,0.9309834439612423,-0.23150988021667818
1499369130337,-0.238956282902266,0.9300068665598538,-0.23334096284428174
1499369130353,-0.23712520027466244,0.9302510109102009,-0.23443961242084388
1499369130369,-0.23871213855191886,0.9303730830853745,-0.2330968184939346
1499369130385,-0.23871213855191886,0.9309834439612423,-0.23456168459601745
1499369130401,-0.23883421072709243,0.932204165712978,-0.2343175402456703
1499369130417,-0.238956282902266,0.9273212787060352,-0.23456168459601745
1499369130433,-0.238101777676051,0.9252460517280845,-0.23907835507743957
1499369130449,-0.2401770046540017,0.9307392996108952,-0.23382925154497602
1499369130465,-0.24408331425955598,0.9348897535667966,-0.2318760967421989
1499369130481,-0.24115358205539028,0.9346456092164495,-0.23321889066910817
1499369130497,-0.23993286030365457,0.9315938048371102,-0.23590447852292673
1499369130513,-0.23932249942778672,0.9280537117570766,-0.23578240634775316
1499369130529,-0.242374303807126,0.9278095674067295,-0.23150988021667818
1499369130545,-0.23932249942778672,0.9333028152895402,-0.2339513237201496
1499369130561,-0.24005493247882814,0.9319600213626309,-0.23541618982223245
1499369130577,-0.23761348897535672,0.9280537117570766,-0.23370717936980245
1499369130593,-0.23541618982223245,0.9278095674067295,-0.23285267414358746
1499369130609,-0.23797970550087744,0.9279316395819031,-0.23199816891737246
1499369130625,-0.238101777676051,0.9315938048371102,-0.22919050888838033
1499369130641,-0.23712520027466244,0.9307392996108952,-0.22919050888838033
1499369130657,-0.23846799420157172,0.9312275883115895,-0.23382925154497602
1499369130673,-0.24200808728160528,0.9340352483405816,-0.23248645761806674
1499369130689,-0.239810788128481,0.9323262378881516,-0.2289463645380332
1499369130705,-0.2394445716029603,0.9340352483405816,-0.23285267414358746
1499369130721,-0.24127565423056385,0.9334248874647137,-0.23150988021667818
1499369130737,-0.24078736552986957,0.9311055161364159,-0.22796978713664462
1499369130753,-0.23920042725261315,0.9297627222095066,-0.23004501411459533
1499369130769,-0.240665293354696,0.9308613717860688,-0.2305333028152896
1499369130785,-0.24029907682917528,0.9300068665598538,-0.2310215915159839
1499369130801,-0.24005493247882814,0.9301289387350273,-0.2284580758373389
1499369130817,-0.24054322117952243,0.9306172274357216,-0.22870222018768604
1499369130833,-0.239810788128481,0.9317158770122838,-0.2343175402456703
1499369130849,-0.24078736552986957,0.933058670939193,-0.23089951934081032
1499369130865,-0.242374303807126,0.9331807431143666,-0.22833600366216533
1499369130881,-0.24261844815747313,0.9334248874647137,-0.22687113756008248
1499369130897,-0.24090943770504314,0.9317158770122838,-0.22577248798352034
1499369130913,-0.243228809033341,0.9326924544136723,-0.22870222018768604
1499369130929,-0.24310673685816742,0.9333028152895402,-0.2318760967421989
1499369130945,-0.24432745860990313,0.9317158770122838,-0.2356603341725796
1499369130961,-0.2435950255588617,0.9326924544136723,-0.22626077668421463
1499369130977,-0.2418860151064317,0.932204165712978,-0.2276035706111239
1499369130993,-0.23590447852292673,0.9289082169832916,-0.23443961242084388
1499369131009,-0.23700312809948887,0.9220721751735717,-0.22906843671320676
1499369131025,-0.238101777676051,0.9258564126039524,-0.22540627145799963
1499369131041,-0.24115358205539028,0.9309834439612423,-0.23956664377813386
1499369131057,-0.24371709773403527,0.9361104753185323,-0.26813153276874946
1499369131073,-0.24847791256580454,0.9331807431143666,-0.24713511863889526
1499369131089,-0.25519188220035094,0.930495155260548,-0.2246738384069582
1499369131105,-0.24603646906233312,0.9209735255970095,-0.2255283436331732
1499369131121,-0.22748149843595034,0.9187762264438852,-0.22186617837796607
1499369131137,-0.22882429236285962,0.9247577630273902,-0.23334096284428174
1499369131153,-0.24164187075608456,0.9324483100633252,-0.21783779659723823
1499369131169,-0.23834592202639815,0.9384298466468302,-0.20563057907988114
1499369131185,-0.22711528191042962,0.9324483100633252,-0.22394140535591678
1499369131201,-0.2330968184939346,0.929640650034333,-0.24078736552986957
1499369131217,-0.24982070649271382,0.9368429083695737,-0.2351720454718853
1499369131233,-0.2548256656748302,0.9445334554055087,-0.23248645761806674
1499369131249,-0.24982070649271382,0.9372091248950944,-0.23651483939879459
1499369131265,-0.24933241779201953,0.9134050507362481,-0.22528419928282606
1499369131281,-0.2570229648279545,0.9070572976272224,-0.23932249942778672
1499369131297,-0.26178377965972377,0.9213397421225302,-0.23553826199740602
1499369131313,-0.24835584039063097,0.9315938048371102,-0.23041123064011604
1499369131329,-0.23492790112153816,0.9300068665598538,-0.23797970550087744
1499369131345,-0.2293125810635539,0.9228046082246131,-0.2348058289463646
1499369131361,-0.2318760967421989,0.9297627222095066,-0.24347295338368813
1499369131377,-0.23456168459601745,0.9353780422674909,-0.25226214999618524
1499369131393,-0.24249637598229956,0.9389181353475244,-0.24798962386511025
1499369131409,-0.25018692301823453,0.936476691844053,-0.2518959334706645
1499369131425,-0.2515297169451438,0.9307392996108952,-0.24640268558785383
1499369131441,-0.2518959334706645,0.9236591134508281,-0.24335088120851456
1499369131457,-0.2532387273975738,0.9187762264438852,-0.24469367513542384
1499369131473,-0.2549477378500038,0.9198748760204474,-0.2448157473105974
1499369131489,-0.2604409857328145,0.9212176699473567,-0.2368810559243153
1499369131505,-0.2587319752803845,0.9215838864728774,-0.24469367513542384
1499369131521,-0.25519188220035094,0.9180437933928438,-0.2503089951934081
1499369131537,-0.2578774700541695,0.9208514534218359,-0.2482337682154574
1499369131553,-0.25641260395208665,0.9312275883115895,-0.24969863431754025
1499369131569,-0.25348287174792095,0.9282978561074238,-0.2482337682154574
1499369131585,-0.2499427786678874,0.9167009994659345,-0.24628061341268026
1499369131601,-0.2556801709010452,0.917433432516976,-0.24603646906233312
1499369131617,-0.26349279011215376,0.9271992065308616,-0.25177386129549095
1499369131633,-0.2704509040970473,0.9392843518730452,-0.2506752117189288
1499369131649,-0.2604409857328145,0.9380636301213094,-0.2448157473105974
1499369131665,-0.25091935606927596,0.9263447013046466,-0.24457160296025027
1499369131681,-0.24750133516441597,0.914869916838331,-0.240665293354696
1499369131697,-0.24347295338368813,0.9160906385900667,-0.240665293354696
1499369131713,-0.24408331425955598,0.9236591134508281,-0.2401770046540017
1499369131729,-0.24554818036163883,0.9271992065308616,-0.23993286030365457
1499369131745,-0.24689097428854812,0.9241474021515224,-0.242374303807126
1499369131761,-0.24225223163195242,0.9188982986190588,-0.2410315098802167
1499369131777,-0.24286259250782027,0.9158464942397195,-0.238101777676051
1499369131793,-0.2435950255588617,0.9159685664148931,-0.2410315098802167
1499369131809,-0.24701304646372169,0.9176775768673231,-0.24005493247882814
1499369131825,-0.2537270160982681,0.9276874952315559,-0.2427405203326467
1499369131841,-0.25775539787899593,0.9328145265888459,-0.25226214999618524
1499369131857,-0.2544594491493095,0.932204165712978,-0.25177386129549095
1499369131873,-0.2515297169451438,0.9271992065308616,-0.2465247577630274
1499369131889,-0.2453040360112917,0.9242694743266959,-0.24347295338368813
1499369131905,-0.242374303807126,0.9269550621805145,-0.24432745860990313
1499369131921,-0.243228809033341,0.9328145265888459,-0.2477454795147631
1499369131937,-0.24847791256580454,0.9318379491874573,-0.24982070649271382
1499369131953,-0.24518196383611812,0.9225604638742659,-0.2592202639810788
1499369131969,-0.24310673685816742,0.9176775768673231,-0.25470359349965666
1499369131985,-0.24225223163195242,0.9196307316701002,-0.2477454795147631
1499369132001,-0.24847791256580454,0.9240253299763488,-0.25299458304722666
1499369132017,-0.2516517891203174,0.9282978561074238,-0.2523842221713588
1499369132033,-0.24884412909132525,0.9286640726329445,-0.25128557259479667
1499369132049,-0.24896620126649882,0.9257343404287788,-0.24921034561684596
1499369132065,-0.2473792629892424,0.9241474021515224,-0.2499427786678874
1499369132081,-0.24213015945677885,0.9247577630273902,-0.24835584039063097
1499369132097,-0.23920042725261315,0.929640650034333,-0.24554818036163883
1499369132113,-0.24225223163195242,0.9262226291294731,-0.2485999847409781
1499369132129,-0.2385900663767453,0.9257343404287788,-0.243228809033341
1499369132145,-0.23663691157396816,0.9291523613336388,-0.23675898374914173
1499369132161,-0.2394445716029603,0.9264667734798202,-0.2465247577630274
1499369132177,-0.23968871595330743,0.9176775768673231,-0.24139772640573742
1499369132193,-0.24127565423056385,0.9201190203707945,-0.24542610818646526
1499369132209,-0.24628061341268026,0.929640650034333,-0.24335088120851456
1499369132225,-0.24603646906233312,0.9303730830853745,-0.24249637598229956
1499369132241,-0.24200808728160528,0.928786144808118,-0.2515297169451438
1499369132257,-0.240665293354696,0.9221942473487452,-0.2544594491493095
1499369132273,-0.24469367513542384,0.919142442969406,-0.2507972838941024
1499369132289,-0.24750133516441597,0.9202410925459681,-0.2533607995727474
1499369132305,-0.24811169604028382,0.9269550621805145,-0.25763332570382236
1499369132321,-0.24811169604028382,0.9279316395819031,-0.25848783093003735
1499369132337,-0.2444495307850767,0.9241474021515224,-0.25262836652170595
1499369132353,-0.24493781948577098,0.9210955977721831,-0.24371709773403527
1499369132369,-0.24884412909132525,0.9206073090714888,-0.24420538643472955
1499369132385,-0.2503089951934081,0.9218280308232245,-0.24054322117952243
1499369132401,-0.24847791256580454,0.9236591134508281,-0.238101777676051
1499369132417,-0.24518196383611812,0.9235370412756545,-0.24090943770504314
1499369132433,-0.2461585412375067,0.9231708247501338,-0.23846799420157172
1499369132449,-0.24847791256580454,0.9225604638742659,-0.2410315098802167
1499369132465,-0.24921034561684596,0.9230487525749602,-0.24029907682917528
1499369132481,-0.24969863431754025,0.9234149691004809,-0.2435950255588617
1499369132497,-0.24884412909132525,0.9214618142977038,-0.25226214999618524
1499369132513,-0.2506752117189288,0.9177996490424967,-0.25555809872587165
1499369132529,-0.25006485084306096,0.9187762264438852,-0.24640268558785383
1499369132545,-0.2515297169451438,0.9214618142977038,-0.2507972838941024
1499369132561,-0.25018692301823453,0.9253681239032581,-0.2566567483024338
1499369132577,-0.24982070649271382,0.9269550621805145,-0.25226214999618524
1499369132593,-0.24798962386511025,0.9231708247501338,-0.2518959334706645
1499369132609,-0.24689097428854812,0.9230487525749602,-0.2528725108720531
1499369132625,-0.24603646906233312,0.9184100099183645,-0.2477454795147631
1499369132641,-0.24554818036163883,0.9163347829404138,-0.24762340733958954
1499369132657,-0.24713511863889526,0.9156023498893724,-0.2503089951934081
1499369132673,-0.2504310673685817,0.9197528038452738,-0.2520180056458381
1499369132689,-0.25262836652170595,0.9235370412756545,-0.2518959334706645
1499369132705,-0.24969863431754025,0.9261005569542995,-0.2527504386968795
1499369132721,-0.2494544899671931,0.9223163195239188,-0.2599526970321202
1499369132737,-0.2510414282444495,0.918287937743191,-0.2611734187838559
1499369132753,-0.25299458304722666,0.9132829785610745,-0.2675211718928816
1499369132769,-0.2590981918059052,0.9193865873197531,-0.27228198672465087
1499369132785,-0.2623941405355916,0.9269550621805145,-0.26691081101701375
1499369132801,-0.2599526970321202,0.9312275883115895,-0.2666666666666666
1499369132817,-0.2554360265506981,0.9284199282825973,-0.2755779354543373
1499369132833,-0.2532387273975738,0.919142442969406,-0.26349279011215376
1499369132849,-0.2499427786678874,0.9162127107652402,-0.25091935606927596
1499369132865,-0.24518196383611812,0.9138933394369424,-0.2587319752803845
1499369132881,-0.2482337682154574,0.9162127107652402,-0.2587319752803845
1499369132897,-0.2537270160982681,0.9193865873197531,-0.25848783093003735
1499369132913,-0.2544594491493095,0.9206073090714888,-0.25763332570382236
1499369132929,-0.25348287174792095,0.9190203707942324,-0.25848783093003735
1499369132945,-0.2562905317769131,0.9186541542687117,-0.25592431525139236
1499369132961,-0.25763332570382236,0.9187762264438852,-0.26105134660868234
1499369132977,-0.26105134660868234,0.9167009994659345,-0.2611734187838559
1499369132993,-0.26276035706111234,0.9221942473487452,-0.26190585183489734
1499369133009,-0.2578774700541695,0.9259784847791259,-0.2638590066376745
1499369133025,-0.25177386129549095,0.9268329900053409,-0.2638590066376745
1499369133041,-0.25214007782101167,0.9214618142977038,-0.2616617074845502
1499369133057,-0.2532387273975738,0.9187762264438852,-0.25983062485694663
1499369133073,-0.2516517891203174,0.9221942473487452,-0.2565346761272602
1499369133089,-0.24896620126649882,0.9242694743266959,-0.25812161440451664
1499369133105,-0.24872205691615168,0.9215838864728774,-0.2590981918059052
1499369133121,-0.2518959334706645,0.9218280308232245,-0.25690089265278093
1499369133137,-0.2525062943465324,0.9243915465018695,-0.25311665522240023
1499369133153,-0.2473792629892424,0.9252460517280845,-0.2532387273975738
1499369133169,-0.24798962386511025,0.9232928969253074,-0.25592431525139236
1499369133185,-0.2518959334706645,0.9213397421225302,-0.2525062943465324
1499369133201,-0.25262836652170595,0.9252460517280845,-0.2611734187838559
1499369133217,-0.2518959334706645,0.9314717326619366,-0.25384908827344166
1499369133233,-0.24750133516441597,0.9318379491874573,-0.2621499961852445
1499369133249,-0.24542610818646526,0.9308613717860688,-0.2604409857328145
1499369133265,-0.2461585412375067,0.9268329900053409,-0.2566567483024338
1499369133281,-0.24725719081406883,0.9273212787060352,-0.2520180056458381
1499369133297,-0.2473792629892424,0.9280537117570766,-0.24701304646372169
1499369133313,-0.24689097428854812,0.9284199282825973,-0.24579232471198598
1499369133329,-0.239810788128481,0.9198748760204474,-0.2532387273975738
1499369133345,-0.2418860151064317,0.9198748760204474,-0.2553139543755245
1499369133361,-0.24664682993820097,0.9279316395819031,-0.24420538643472955
1499369133377,-0.24750133516441597,0.9351338979171437,-0.24029907682917528
1499369133393,-0.24872205691615168,0.9335469596398873,-0.240665293354696
1499369133409,-0.25177386129549095,0.9264667734798202,-0.2385900663767453
1499369133425,-0.2528725108720531,0.9228046082246131,-0.23089951934081032
1499369133441,-0.2527504386968795,0.9308613717860688,-0.22455176623178463
1499369133457,-0.25214007782101167,0.9368429083695737,-0.2251621271076525
1499369133473,-0.24982070649271382,0.9289082169832916,-0.2095368886854354
1499369133489,-0.24603646906233312,0.9251239795529109,-0.20001525902189687
1499369133505,-0.24347295338368813,0.9326924544136723,-0.20343327992675686
1499369133521,-0.23248645761806674,0.9351338979171437,-0.20587472343022828
1499369133537,-0.22479591058213177,0.9295185778591595,-0.20782787823300541
1499369133553,-0.2276035706111239,0.9337911039902345,-0.21368734264133682
1499369133569,-0.23761348897535672,0.9462424658579387,-0.2205233844510568
1499369133585,-0.2453040360112917,0.9546654459449151,-0.22442969405661106
1499369133601,-0.24579232471198598,0.9502708476386665,-0.22149996185244536
1499369133617,-0.24420538643472955,0.9435568780041201,-0.21832608529793252
1499369133633,-0.2394445716029603,0.9358663309681852,-0.21393148699168396
1499369133649,-0.23407339589532317,0.9344014648661023,-0.2103913939116504
1499369133665,-0.23077744716563675,0.9340352483405816,-0.201113908598459
1499369133681,-0.23077744716563675,0.9352559700923173,-0.1965972381170369
1499369133697,-0.2284580758373389,0.9367208361944002,-0.19635309376668975
1499369133713,-0.22821393148699176,0.9341573205157552,-0.19159227893492048
1499369133729,-0.23126573586633103,0.936476691844053,-0.1881742580300605
1499369133745,-0.23443961242084388,0.9379415579461359,-0.18255893797207579
1499369133761,-0.23736934462500958,0.9368429083695737,-0.18158236057068722
1499369133777,-0.24432745860990313,0.940749217975128,-0.18402380407415864
1499369133793,-0.24420538643472955,0.9423361562523844,-0.18194857709620793
1499369133809,-0.239810788128481,0.939040207522698,-0.17779812314030652
1499369133825,-0.2330968184939346,0.9344014648661023,-0.1715724422064544
1499369133841,-0.22906843671320676,0.935622186617838,-0.1774319066147858
1499369133857,-0.2296787975890746,0.9419699397268637,-0.1862211032272829
1499369133873,-0.23004501411459533,0.9422140840772109,-0.19049362935835834
1499369133889,-0.22992294193942175,0.9396505683985659,-0.19452201113908618
1499369133905,-0.23175402456702532,0.940749217975128,-0.19549858854047475
1499369133921,-0.23248645761806674,0.941603723201343,-0.19623102159151617
1499369133937,-0.23358510719462888,0.9400167849240866,-0.19269092851148262
1499369133953,-0.23065537499046318,0.9385519188220037,-0.19476615548943332
1499369133969,-0.22613870450904106,0.9374532692454416,-0.20172426947432687
1499369133985,-0.2251621271076525,0.9355001144426645,-0.20172426947432687
1499369134001,-0.2255283436331732,0.9387960631723509,-0.20648508430609613
1499369134017,-0.22394140535591678,0.9389181353475244,-0.20978103303578255
1499369134033,-0.2213778896772718,0.9391622796978716,-0.21026932173647683
1499369134049,-0.22113374532692465,0.9397726405737394,-0.20672922865644328
1499369134065,-0.22198825055313964,0.9427023727779051,-0.206240939955749
1499369134081,-0.22748149843595034,0.9435568780041201,-0.20794995040817899
1499369134097,-0.22394140535591678,0.9430685893034259,-0.20978103303578255
1499369134113,-0.22406347753109035,0.9440451667048144,-0.21258869306477468
1499369134129,-0.22504005493247892,0.9428244449530787,-0.2138094148165104
1499369134145,-0.22455176623178463,0.9420920119020373,-0.2116121156633861
1499369134161,-0.22442969405661106,0.9422140840772109,-0.21112382696269183
1499369134177,-0.22418554970626392,0.9427023727779051,-0.21185626001373326
1499369134193,-0.22491798275730535,0.9386739909971773,-0.2188143739986268
1499369134209,-0.2238193331807432,0.9378194857709623,-0.21564049744411395
1499369134225,-0.22333104448004892,0.938185702296483,-0.21832608529793252
1499369134241,-0.2243076218814375,0.9376974135957887,-0.22076752880140393
1499369134257,-0.22662699320973534,0.9358663309681852,-0.22125581750209822
1499369134273,-0.22650492103456177,0.937331197070268,-0.22198825055313964
1499369134289,-0.22577248798352034,0.9384298466468302,-0.22027924010070965
1499369134305,-0.22577248798352034,0.9408712901503016,-0.2196688792248418
1499369134321,-0.22479591058213177,0.9403830014496073,-0.22223239490348679
1499369134337,-0.22528419928282606,0.9406271457999544,-0.22418554970626392
1499369134353,-0.2243076218814375,0.9412375066758223,-0.2217441062027925
1499369134369,-0.22418554970626392,0.9401388570992602,-0.22198825055313964
1499369134385,-0.2234531166552225,0.939894712748913,-0.22247653925383393
1499369134401,-0.22211032272831321,0.9412375066758223,-0.22113374532692465
1499369134417,-0.22540627145799963,0.9411154345006487,-0.21991302357518894
1499369134433,-0.22247653925383393,0.9369649805447473,-0.2200350957503625
1499369134449,-0.22149996185244536,0.9351338979171437,-0.21893644617380037
1499369134465,-0.22357518883039607,0.9384298466468302,-0.22125581750209822
1499369134481,-0.2267490653849089,0.9411154345006487,-0.21954680704966822
1499369134497,-0.22613870450904106,0.940749217975128,-0.21808194094758537
1499369134513,-0.22027924010070965,0.9386739909971773,-0.22113374532692465
1499369134529,-0.22076752880140393,0.9359884031433587,-0.22320897230487535
1499369134545,-0.22211032272831321,0.9355001144426645,-0.22064545662623036
1499369134561,-0.22149996185244536,0.9394064240482187,-0.22272068360418107
1499369134577,-0.22235446707866036,0.9409933623254751,-0.2251621271076525
1499369134593,-0.2217441062027925,0.9387960631723509,-0.22235446707866036
1499369134609,-0.22308690012970178,0.9384298466468302,-0.22198825055313964
1499369134625,-0.22418554970626392,0.9386739909971773,-0.22101167315175108
1499369134641,-0.2234531166552225,0.9358663309681852,-0.2158846417944611
1499369134657,-0.2179598687724118,0.9325703822384988,-0.21527428091859324
1499369134673,-0.21905851834897394,0.9370870527199209,-0.22235446707866036
1499369134689,-0.22394140535591678,0.9417257953765166,-0.22394140535591678
1499369134705,-0.22687113756008248,0.9428244449530787,-0.22796978713664462
1499369134721,-0.2255283436331732,0.9413595788509959,-0.22626077668421463
1499369134737,-0.22284275577935464,0.9389181353475244,-0.22406347753109035
1499369134753,-0.2229648279545282,0.9350118257419702,-0.22540627145799963
1499369134769,-0.22577248798352034,0.933058670939193,-0.22015716792553608
1499369134785,-0.2258945601586939,0.9372091248950944,-0.2171053635461968
1499369134801,-0.22626077668421463,0.939040207522698,-0.21930266269932108
1499369134817,-0.2258945601586939,0.9386739909971773,-0.21954680704966822
1499369134833,-0.2258945601586939,0.9348897535667966,-0.22149996185244536
1499369134849,-0.22784771496147105,0.9335469596398873,-0.2238193331807432
1499369134865,-0.22821393148699176,0.9355001144426645,-0.22186617837796607
1499369134881,-0.2284580758373389,0.9318379491874573,-0.22357518883039607
1499369134897,-0.22772564278629748,0.9361104753185323,-0.22040131227588322
1499369134913,-0.2284580758373389,0.934767681391623,-0.2200350957503625
1499369134929,-0.22626077668421463,0.9336690318150609,-0.22064545662623036
1499369134945,-0.2251621271076525,0.9362325474937059,-0.21905851834897394
1499369134961,-0.22504005493247892,0.9435568780041201,-0.22235446707866036
1499369134977,-0.22613870450904106,0.9451438162813766,-0.22418554970626392
1499369134993,-0.2229648279545282,0.9428244449530787,-0.22394140535591678
1499369135009,-0.22198825055313964,0.9357442587930116,-0.2246738384069582
1499369135025,-0.22162203402761893,0.9361104753185323,-0.2238193331807432
1499369135041,-0.2255283436331732,0.9375753414206152,-0.22442969405661106
1499369135057,-0.22479591058213177,0.9362325474937059,-0.2225986114290075
1499369135073,-0.22040131227588322,0.9378194857709623,-0.2213778896772718
1499369135089,-0.22040131227588322,0.935622186617838,-0.2246738384069582
1499369135105,-0.22540627145799963,0.9340352483405816,-0.22272068360418107
1499369135121,-0.22699320973525605,0.9372091248950944,-0.2205233844510568
1499369135137,-0.2255283436331732,0.9380636301213094,-0.2251621271076525
1499369135153,-0.22565041580834677,0.9368429083695737,-0.22284275577935464
1499369135169,-0.22369726100556964,0.9353780422674909,-0.22357518883039607
1499369135185,-0.2234531166552225,0.9352559700923173,-0.22198825055313964
1499369135201,-0.22455176623178463,0.936476691844053,-0.22015716792553608
1499369135217,-0.22272068360418107,0.9376974135957887,-0.2200350957503625
1499369135233,-0.2229648279545282,0.9375753414206152,-0.2234531166552225
1499369135249,-0.22442969405661106,0.9397726405737394,-0.22626077668421463
1499369135265,-0.22406347753109035,0.9411154345006487,-0.2289463645380332
1499369135281,-0.22504005493247892,0.9411154345006487,-0.22662699320973534
1499369135297,-0.22333104448004892,0.9402609292744337,-0.2251621271076525
1499369135313,-0.22235446707866036,0.9370870527199209,-0.22687113756008248
1499369135329,-0.2225986114290075,0.9365987640192266,-0.22479591058213177
1499369135345,-0.22125581750209822,0.9365987640192266,-0.22711528191042962
1499369135361,-0.22320897230487535,0.9375753414206152,-0.2263828488593882
1499369135377,-0.22308690012970178,0.9340352483405816,-0.22796978713664462
1499369135393,-0.2234531166552225,0.9345235370412759,-0.22601663233386748
1499369135409,-0.2243076218814375,0.9352559700923173,-0.2263828488593882
1499369135425,-0.2251621271076525,0.9365987640192266,-0.22272068360418107
1499369135441,-0.2258945601586939,0.9357442587930116,-0.22211032272831321
1499369135457,-0.22369726100556964,0.9374532692454416,-0.22149996185244536
1499369135473,-0.2255283436331732,0.9367208361944002,-0.21954680704966822
1499369135489,-0.22577248798352034,0.9370870527199209,-0.22125581750209822
1499369135505,-0.22565041580834677,0.9365987640192266,-0.22333104448004892
1499369135521,-0.22540627145799963,0.9362325474937059,-0.2208896009765775
1499369135537,-0.22528419928282606,0.9378194857709623,-0.2255283436331732
1499369135553,-0.22308690012970178,0.9403830014496073,-0.22455176623178463
1499369135569,-0.2234531166552225,0.9397726405737394,-0.22247653925383393
1499369135585,-0.22333104448004892,0.9317158770122838,-0.22320897230487535
1499369135601,-0.22235446707866036,0.932204165712978,-0.22198825055313964
1499369135617,-0.2280918593118182,0.9351338979171437,-0.2258945601586939
1499369135633,-0.22711528191042962,0.939894712748913,-0.2246738384069582
1499369135649,-0.22125581750209822,0.9422140840772109,-0.22223239490348679
1499369135665,-0.21844815747310609,0.9375753414206152,-0.2229648279545282
1499369135681,-0.2229648279545282,0.9363546196688795,-0.2234531166552225
1499369135697,-0.22711528191042962,0.9386739909971773,-0.2238193331807432
1499369135713,-0.22711528191042962,0.9422140840772109,-0.22540627145799963
1499369135729,-0.2246738384069582,0.938185702296483,-0.22186617837796607
1499369135745,-0.22320897230487535,0.933913176165408,-0.22076752880140393
1499369135761,-0.22149996185244536,0.9328145265888459,-0.22076752880140393
1499369135777,-0.2251621271076525,0.9320820935378045,-0.21893644617380037
1499369135793,-0.22455176623178463,0.9348897535667966,-0.21783779659723823
1499369135809,-0.22528419928282606,0.9340352483405816,-0.22272068360418107
1499369135825,-0.22394140535591678,0.9380636301213094,-0.22796978713664462
1499369135841,-0.22577248798352034,0.9406271457999544,-0.2293125810635539
1499369135857,-0.22577248798352034,0.9422140840772109,-0.2318760967421989
1499369135873,-0.22662699320973534,0.943312733653773,-0.23212024109254603
1499369135889,-0.22748149843595034,0.9395284962233923,-0.2305333028152896
1499369135905,-0.22577248798352034,0.9378194857709623,-0.22906843671320676
1499369135921,-0.2276035706111239,0.9389181353475244,-0.2280918593118182
1499369135937,-0.2238193331807432,0.9363546196688795,-0.22479591058213177
1499369135953,-0.21930266269932108,0.9335469596398873,-0.22076752880140393
1499369135969,-0.21954680704966822,0.930495155260548,-0.2229648279545282
1499369135985,-0.22442969405661106,0.9320820935378045,-0.2284580758373389
1499369136001,-0.22784771496147105,0.9346456092164495,-0.2276035706111239
1499369136017,-0.2258945601586939,0.9362325474937059,-0.2246738384069582
1499369136033,-0.22418554970626392,0.9392843518730452,-0.22149996185244536
1499369136049,-0.22442969405661106,0.9396505683985659,-0.22394140535591678
1499369136065,-0.22491798275730535,0.9384298466468302,-0.22565041580834677
1499369136081,-0.2234531166552225,0.9403830014496073,-0.2246738384069582
1499369136097,-0.22308690012970178,0.9385519188220037,-0.2272373540856032
1499369136113,-0.22455176623178463,0.9387960631723509,-0.2255283436331732
1499369136129,-0.22198825055313964,0.9400167849240866,-0.22870222018768604
1499369136145,-0.22064545662623036,0.9394064240482187,-0.22980086976424818
1499369136161,-0.2234531166552225,0.9353780422674909,-0.2272373540856032
1499369136177,-0.2208896009765775,0.9318379491874573,-0.22601663233386748
1499369136193,-0.22247653925383393,0.9325703822384988,-0.22504005493247892
1499369136209,-0.22577248798352034,0.9387960631723509,-0.22272068360418107
1499369136225,-0.22491798275730535,0.9413595788509959,-0.22613870450904106
1499369136241,-0.21942473487449465,0.9402609292744337,-0.22980086976424818
1499369136257,-0.22101167315175108,0.9365987640192266,-0.22442969405661106
1499369136273,-0.22223239490348679,0.9355001144426645,-0.22284275577935464
1499369136289,-0.2213778896772718,0.9402609292744337,-0.22455176623178463
1499369136305,-0.22113374532692465,0.9413595788509959,-0.22455176623178463
1499369136321,-0.21954680704966822,0.9372091248950944,-0.22333104448004892
1499369136337,-0.21808194094758537,0.9376974135957887,-0.2205233844510568
1499369136353,-0.21930266269932108,0.9358663309681852,-0.22149996185244536
1499369136369,-0.22040131227588322,0.9353780422674909,-0.21905851834897394
1499369136385,-0.22101167315175108,0.9352559700923173,-0.22040131227588322
1499369136401,-0.22186617837796607,0.937331197070268,-0.22577248798352034
1499369136417,-0.22235446707866036,0.9400167849240866,-0.22748149843595034
1499369136433,-0.2234531166552225,0.9386739909971773,-0.22320897230487535
1499369136449,-0.22211032272831321,0.938185702296483,-0.2246738384069582
1499369136465,-0.2217441062027925,0.9384298466468302,-0.22442969405661106
1499369136481,-0.22406347753109035,0.9372091248950944,-0.2258945601586939
1499369136497,-0.2217441062027925,0.9375753414206152,-0.22601663233386748
1499369136513,-0.22406347753109035,0.936476691844053,-0.2267490653849089
1499369136529,-0.22455176623178463,0.9379415579461359,-0.22577248798352034
1499369136545,-0.22308690012970178,0.9370870527199209,-0.2234531166552225
1499369136561,-0.22284275577935464,0.9359884031433587,-0.22455176623178463
1499369136577,-0.22357518883039607,0.9380636301213094,-0.2251621271076525
1499369136593,-0.22333104448004892,0.939894712748913,-0.22357518883039607
1499369136609,-0.2229648279545282,0.9403830014496073,-0.2208896009765775
1499369136625,-0.22504005493247892,0.9379415579461359,-0.22162203402761893
1499369136641,-0.22455176623178463,0.9368429083695737,-0.22186617837796607
1499369136657,-0.2243076218814375,0.9372091248950944,-0.22247653925383393
1499369136673,-0.22369726100556964,0.936476691844053,-0.2217441062027925
1499369136689,-0.22284275577935464,0.9362325474937059,-0.22015716792553608
1499369136705,-0.22040131227588322,0.939040207522698,-0.22235446707866036
1499369136721,-0.2196688792248418,0.9405050736247809,-0.22601663233386748
1499369136737,-0.22101167315175108,0.9384298466468302,-0.22027924010070965
1499369136753,-0.22149996185244536,0.9355001144426645,-0.22149996185244536
1499369136769,-0.22198825055313964,0.9365987640192266,-0.22284275577935464
1499369136785,-0.22870222018768604,0.9414816510261694,-0.22211032272831321
1499369136801,-0.22992294193942175,0.9430685893034259,-0.22223239490348679
1499369136817,-0.22796978713664462,0.9402609292744337,-0.21930266269932108
1499369136833,-0.22577248798352034,0.933058670939193,-0.21661707484550252
1499369136849,-0.2267490653849089,0.929640650034333,-0.21576256961928753
1499369136865,-0.22528419928282606,0.9367208361944002,-0.21551842526894038
1499369136881,-0.22491798275730535,0.9395284962233923,-0.21905851834897394
1499369136897,-0.22235446707866036,0.9355001144426645,-0.21612878614480824
1499369136913,-0.22076752880140393,0.9345235370412759,-0.21600671396963467
1499369136929,-0.22113374532692465,0.935622186617838,-0.21869230182345323
1499369136945,-0.22320897230487535,0.938185702296483,-0.21771572442206466
1499369136961,-0.22308690012970178,0.9389181353475244,-0.21551842526894038
1499369136977,-0.22394140535591678,0.9397726405737394,-0.21905851834897394
1499369136993,-0.2238193331807432,0.9414816510261694,-0.22223239490348679
1499369137009,-0.22528419928282606,0.9408712901503016,-0.22076752880140393
1499369137025,-0.22650492103456177,0.9397726405737394,-0.21893644617380037
1499369137041,-0.22528419928282606,0.9375753414206152,-0.22247653925383393
1499369137057,-0.22333104448004892,0.9375753414206152,-0.22320897230487535
1499369137073,-0.22162203402761893,0.9358663309681852,-0.2225986114290075
1499369137089,-0.22272068360418107,0.9386739909971773,-0.22394140535591678
1499369137105,-0.22320897230487535,0.937331197070268,-0.22577248798352034
1499369137121,-0.22357518883039607,0.9365987640192266,-0.22308690012970178
1499369137137,-0.22491798275730535,0.9376974135957887,-0.22504005493247892
1499369137153,-0.22528419928282606,0.9389181353475244,-0.22284275577935464
1499369137169,-0.22577248798352034,0.939894712748913,-0.22565041580834677
1499369137185,-0.22613870450904106,0.9395284962233923,-0.22565041580834677
1499369137201,-0.2238193331807432,0.9376974135957887,-0.2225986114290075
1499369137217,-0.22455176623178463,0.9386739909971773,-0.2225986114290075
1499369137233,-0.2251621271076525,0.9380636301213094,-0.2213778896772718
1499369137249,-0.2251621271076525,0.9383077744716566,-0.2225986114290075
1499369137265,-0.2213778896772718,0.9357442587930116,-0.22162203402761893
1499369137281,-0.2200350957503625,0.9348897535667966,-0.2196688792248418
1499369137297,-0.22076752880140393,0.9380636301213094,-0.22601663233386748
1499369137313,-0.22308690012970178,0.9402609292744337,-0.22235446707866036
1499369137329,-0.2217441062027925,0.9389181353475244,-0.22308690012970178
1499369137345,-0.22040131227588322,0.9337911039902345,-0.2238193331807432
1499369137361,-0.21979095140001537,0.9352559700923173,-0.2255283436331732
1499369137377,-0.2276035706111239,0.9412375066758223,-0.22235446707866036
1499369137393,-0.2258945601586939,0.9413595788509959,-0.22076752880140393
1499369137409,-0.22223239490348679,0.9408712901503016,-0.22113374532692465
1499369137425,-0.22272068360418107,0.9357442587930116,-0.22406347753109035
1499369137441,-0.2238193331807432,0.9323262378881516,-0.22211032272831321
1499369137457,-0.22613870450904106,0.9372091248950944,-0.2225986114290075
1499369137473,-0.22333104448004892,0.9394064240482187,-0.22687113756008248
1499369137489,-0.22125581750209822,0.9369649805447473,-0.22369726100556964
1499369137505,-0.2205233844510568,0.9350118257419702,-0.21991302357518894
1499369137521,-0.21991302357518894,0.933913176165408,-0.22284275577935464
1499369137537,-0.22284275577935464,0.9333028152895402,-0.2217441062027925
1499369137553,-0.2251621271076525,0.9355001144426645,-0.22198825055313964
1499369137569,-0.22308690012970178,0.9387960631723509,-0.22223239490348679
1499369137585,-0.22601663233386748,0.9417257953765166,-0.2272373540856032
1499369137601,-0.22772564278629748,0.9423361562523844,-0.22577248798352034
1499369137617,-0.2238193331807432,0.9380636301213094,-0.22565041580834677
1499369137633,-0.2208896009765775,0.9370870527199209,-0.2251621271076525
1499369137649,-0.2196688792248418,0.9350118257419702,-0.22821393148699176
1499369137665,-0.22040131227588322,0.9328145265888459,-0.22919050888838033
1499369137681,-0.22235446707866036,0.9348897535667966,-0.22650492103456177
1499369137697,-0.22320897230487535,0.9379415579461359,-0.22821393148699176
1499369137713,-0.22223239490348679,0.9384298466468302,-0.23089951934081032
1499369137729,-0.21954680704966822,0.9363546196688795,-0.2289463645380332
1499369137745,-0.22064545662623036,0.9374532692454416,-0.22735942626077676
1499369137761,-0.2196688792248418,0.9401388570992602,-0.23004501411459533
1499369137777,-0.2200350957503625,0.9387960631723509,-0.2280918593118182
1499369137793,-0.22125581750209822,0.9376974135957887,-0.22748149843595034
1499369137809,-0.22113374532692465,0.936476691844053,-0.22711528191042962
1499369137825,-0.22076752880140393,0.9362325474937059,-0.2272373540856032
1499369137841,-0.21954680704966822,0.9362325474937059,-0.22504005493247892
1499369137857,-0.22113374532692465,0.9361104753185323,-0.22394140535591678
1499369137873,-0.22162203402761893,0.9355001144426645,-0.2267490653849089
1499369137889,-0.2205233844510568,0.935622186617838,-0.22577248798352034
1499369137905,-0.21991302357518894,0.9383077744716566,-0.2258945601586939
1499369137921,-0.21979095140001537,0.9395284962233923,-0.22613870450904106
1499369137937,-0.21942473487449465,0.9355001144426645,-0.2263828488593882
1499369137953,-0.21832608529793252,0.9309834439612423,-0.22613870450904106
1499369137969,-0.22211032272831321,0.9340352483405816,-0.2310215915159839
1499369137985,-0.22601663233386748,0.9402609292744337,-0.22735942626077676
1499369138001,-0.2246738384069582,0.9395284962233923,-0.22711528191042962
1499369138017,-0.21979095140001537,0.9367208361944002,-0.22772564278629748
1499369138033,-0.22101167315175108,0.9341573205157552,-0.22613870450904106
1499369138049,-0.22333104448004892,0.9348897535667966,-0.23004501411459533
1499369138065,-0.22308690012970178,0.9367208361944002,-0.22784771496147105
1499369138081,-0.22027924010070965,0.9387960631723509,-0.23077744716563675
1499369138097,-0.21979095140001537,0.9368429083695737,-0.22906843671320676
1499369138113,-0.21869230182345323,0.9341573205157552,-0.22650492103456177
1499369138129,-0.21954680704966822,0.9325703822384988,-0.22601663233386748
1499369138145,-0.22198825055313964,0.9328145265888459,-0.2267490653849089
1499369138161,-0.2217441062027925,0.9351338979171437,-0.22650492103456177
1499369138177,-0.22125581750209822,0.9374532692454416,-0.22748149843595034
1499369138193,-0.22162203402761893,0.9397726405737394,-0.23089951934081032
1499369138209,-0.22149996185244536,0.9385519188220037,-0.22943465323872747
1499369138225,-0.22198825055313964,0.9384298466468302,-0.2310215915159839
1499369138241,-0.22027924010070965,0.9384298466468302,-0.2351720454718853
1499369138257,-0.2217441062027925,0.9357442587930116,-0.2289463645380332
1499369138273,-0.22015716792553608,0.9334248874647137,-0.22796978713664462
1499369138289,-0.22223239490348679,0.9342793926909287,-0.23004501411459533
1499369138305,-0.22357518883039607,0.934767681391623,-0.2322423132677196
1499369138321,-0.22113374532692465,0.9357442587930116,-0.2301670862897689
1499369138337,-0.21905851834897394,0.9363546196688795,-0.23114366369115746
1499369138353,-0.22223239490348679,0.9363546196688795,-0.22992294193942175
1499369138369,-0.22272068360418107,0.9365987640192266,-0.23212024109254603
1499369138385,-0.22211032272831321,0.9361104753185323,-0.22833600366216533
1499369138401,-0.22211032272831321,0.9352559700923173,-0.22833600366216533
1499369138417,-0.22149996185244536,0.9352559700923173,-0.23163195239185175
1499369138433,-0.22015716792553608,0.9350118257419702,-0.23041123064011604
1499369138449,-0.22149996185244536,0.9359884031433587,-0.2305333028152896
1499369138465,-0.22149996185244536,0.9362325474937059,-0.22906843671320676
1499369138481,-0.22235446707866036,0.936476691844053,-0.23089951934081032
1499369138497,-0.2200350957503625,0.9352559700923173,-0.23041123064011604
1499369138513,-0.22211032272831321,0.9346456092164495,-0.23089951934081032
1499369138529,-0.22113374532692465,0.9368429083695737,-0.2296787975890746
1499369138545,-0.22040131227588322,0.9384298466468302,-0.2322423132677196
1499369138561,-0.22064545662623036,0.9335469596398873,-0.2276035706111239
1499369138577,-0.21991302357518894,0.9320820935378045,-0.2322423132677196
1499369138593,-0.22308690012970178,0.9367208361944002,-0.2322423132677196
1499369138609,-0.2267490653849089,0.9394064240482187,-0.23236438544289317
1499369138625,-0.22491798275730535,0.9392843518730452,-0.22919050888838033
1499369138641,-0.21942473487449465,0.9369649805447473,-0.23041123064011604
1499369138657,-0.22394140535591678,0.9333028152895402,-0.2293125810635539
1499369138673,-0.22308690012970178,0.9326924544136723,-0.2263828488593882
1499369138689,-0.22223239490348679,0.9367208361944002,-0.22943465323872747
1499369138705,-0.22101167315175108,0.9369649805447473,-0.23077744716563675
1499369138721,-0.2196688792248418,0.9341573205157552,-0.23004501411459533
1499369138737,-0.2171053635461968,0.9336690318150609,-0.2284580758373389
1499369138753,-0.2188143739986268,0.9326924544136723,-0.2296787975890746
1499369138769,-0.22149996185244536,0.9336690318150609,-0.2310215915159839
1499369138785,-0.22101167315175108,0.9374532692454416,-0.22992294193942175
1499369138801,-0.2208896009765775,0.9374532692454416,-0.2322423132677196
1499369138817,-0.22162203402761893,0.9379415579461359,-0.23126573586633103
1499369138833,-0.22223239490348679,0.9352559700923173,-0.23028915846494247
1499369138849,-0.22186617837796607,0.935622186617838,-0.2322423132677196
1499369138865,-0.2234531166552225,0.9375753414206152,-0.2305333028152896
1499369138881,-0.22455176623178463,0.9367208361944002,-0.2301670862897689
1499369138897,-0.22406347753109035,0.933058670939193,-0.23260852979324032
1499369138913,-0.22320897230487535,0.9342793926909287,-0.22784771496147105
1499369138929,-0.22455176623178463,0.9325703822384988,-0.2313878080415046
1499369138945,-0.22406347753109035,0.932204165712978,-0.23260852979324032
1499369138961,-0.22113374532692465,0.9336690318150609,-0.23028915846494247
1499369138977,-0.22235446707866036,0.935622186617838,-0.23321889066910817
1499369138993,-0.22198825055313964,0.9365987640192266,-0.2289463645380332
1499369139009,-0.22149996185244536,0.9378194857709623,-0.2310215915159839
1499369139025,-0.2208896009765775,0.9374532692454416,-0.22821393148699176
1499369139041,-0.22076752880140393,0.9375753414206152,-0.23028915846494247
1499369139057,-0.22113374532692465,0.937331197070268,-0.22882429236285962
1499369139073,-0.22064545662623036,0.9372091248950944,-0.22821393148699176
1499369139089,-0.22149996185244536,0.936476691844053,-0.22882429236285962
1499369139105,-0.22149996185244536,0.9350118257419702,-0.2276035706111239
1499369139121,-0.2188143739986268,0.936476691844053,-0.2318760967421989
1499369139137,-0.21979095140001537,0.9361104753185323,-0.23065537499046318
1499369139153,-0.22211032272831321,0.9372091248950944,-0.23004501411459533
1499369139169,-0.2217441062027925,0.9369649805447473,-0.23175402456702532
1499369139185,-0.22198825055313964,0.9323262378881516,-0.23150988021667818
1499369139201,-0.21930266269932108,0.9314717326619366,-0.2301670862897689
1499369139217,-0.2213778896772718,0.9345235370412759,-0.23089951934081032
1499369139233,-0.2267490653849089,0.9400167849240866,-0.23163195239185175
1499369139249,-0.22357518883039607,0.9422140840772109,-0.23089951934081032
1499369139265,-0.21893644617380037,0.9391622796978716,-0.23028915846494247
1499369139281,-0.2200350957503625,0.9352559700923173,-0.23077744716563675
1499369139297,-0.2229648279545282,0.9324483100633252,-0.22870222018768604
1499369139313,-0.22357518883039607,0.9374532692454416,-0.2296787975890746
1499369139329,-0.22235446707866036,0.9389181353475244,-0.23236438544289317
1499369139345,-0.21979095140001537,0.9323262378881516,-0.23028915846494247
1499369139361,-0.21844815747310609,0.9297627222095066,-0.2284580758373389
1499369139377,-0.21869230182345323,0.9303730830853745,-0.22906843671320676
1499369139393,-0.22308690012970178,0.933913176165408,-0.22565041580834677
1499369139409,-0.22211032272831321,0.9367208361944002,-0.22687113756008248
1499369139425,-0.22076752880140393,0.9380636301213094,-0.2301670862897689
1499369139441,-0.22149996185244536,0.9386739909971773,-0.23297474631876103
1499369139457,-0.2217441062027925,0.9392843518730452,-0.2339513237201496
1499369139473,-0.22186617837796607,0.939040207522698,-0.23407339589532317
1499369139489,-0.21991302357518894,0.9385519188220037,-0.23492790112153816
1499369139505,-0.22284275577935464,0.9358663309681852,-0.23382925154497602
1499369139521,-0.2213778896772718,0.9340352483405816,-0.22980086976424818
1499369139537,-0.22125581750209822,0.934767681391623,-0.2289463645380332
1499369139553,-0.22125581750209822,0.9336690318150609,-0.2301670862897689
1499369139569,-0.22040131227588322,0.9308613717860688,-0.23248645761806674
1499369139585,-0.22015716792553608,0.9328145265888459,-0.2296787975890746
1499369139601,-0.22040131227588322,0.9363546196688795,-0.23028915846494247
