Timestamp (ms),Gyro X (°/s),Gyro Y (°/s),Gyro Z (°/s)
1499369113760,2.3498893720911838,-1.3122758831159445,0.15259021896690683
1499369113776,2.3498893720911838,-1.2512397955290453,0.09155413138023505
1499369113792,2.532997634851654,-1.2512397955290453,0.15259021896690683
1499369113808,2.532997634851654,-1.1902037079423735,0.213626306553806
1499369113824,2.5940337224383256,-1.1902037079423735,0.213626306553806
1499369113840,2.7771419851987957,-1.1291676203554744,0.213626306553806
1499369113856,2.7771419851987957,-1.1291676203554744,0.2746623941404778
1499369113872,2.9602502479590385,-1.0681315327688026,0.33569848172737693
1499369113888,3.2043945983061803,-1.1291676203554744,0.213626306553806
1499369113904,3.2654306858930795,-1.1902037079423735,0.2746623941404778
1499369113920,3.0823224231326094,-1.1902037079423735,0.33569848172737693
1499369113936,3.1433585107195086,-1.1902037079423735,0.45777065690094787
1499369113952,3.2043945983061803,-1.3733119707026162,0.5188067444876197
1499369113968,3.3264667734797513,-1.1291676203554744,0.5188067444876197
1499369113984,3.2043945983061803,-1.0681315327688026,0.5798428320745188
1499369114000,3.1433585107195086,-1.1902037079423735,0.3967345693140487
1499369114016,2.9602502479590385,-1.1291676203554744,0.213626306553806
1499369114032,2.288853284504512,-1.1902037079423735,0.03051804379333589
1499369114048,1.983672846570471,-1.2512397955290453,-0.15259021896690683
1499369114064,1.9226367589837992,-1.1902037079423735,-0.09155413138023505
1499369114080,1.5564202334630863,-1.2512397955290453,0.09155413138023505
1499369114096,1.9226367589837992,-1.3122758831159445,0.2746623941404778
1499369114112,2.410925459678083,-1.0681315327688026,0.3967345693140487
1499369114128,2.4719615472647547,-1.1291676203554744,0.45777065690094787
1499369114144,2.655069810025225,-1.1902037079423735,0.5188067444876197
1499369114160,2.7771419851987957,-1.3122758831159445,0.33569848172737693
1499369114176,2.655069810025225,-1.4953841458761872,0.03051804379333589
1499369114192,1.983672846570471,-1.5564202334630863,-0.09155413138023505
1499369114208,1.4343480582895154,-1.3733119707026162,-0.09155413138023505
1499369114224,1.4343480582895154,-1.1291676203554744,-0.09155413138023505
1499369114240,1.3733119707026162,-1.3122758831159445,-0.03051804379333589
1499369114256,1.8005645838102282,-0.9460593575952316,0.03051804379333589
1499369114272,2.04470893415737,-0.5188067444876197,0.09155413138023505
1499369114288,2.166781109330941,-0.5798428320745188,0.03051804379333589
1499369114304,2.655069810025225,-0.6408789196611906,-0.03051804379333589
1499369114320,2.532997634851654,-0.8239871824216607,-0.03051804379333589
1499369114336,2.288853284504512,-1.0070954451819034,-0.03051804379333589
1499369114352,2.3498893720911838,-1.0070954451819034,-0.03051804379333589
1499369114368,2.655069810025225,-1.0681315327688026,-0.09155413138023505
1499369114384,2.8992141603723667,-1.2512397955290453,-0.03051804379333589
1499369114400,2.7161058976118966,-1.3733119707026162,0.03051804379333589
1499369114416,2.288853284504512,-1.5564202334630863,0.09155413138023505
1499369114432,2.166781109330941,-1.5564202334630863,0.03051804379333589
1499369114448,2.04470893415737,-1.3733119707026162,-0.09155413138023505
1499369114464,1.983672846570471,-1.4953841458761872,-0.09155413138023505
1499369114480,1.9226367589837992,-1.4343480582895154,0.03051804379333589
1499369114496,1.9226367589837992,-1.4953841458761872,0.03051804379333589
1499369114512,1.9226367589837992,-1.4343480582895154,0.03051804379333589
1499369114528,2.227817196917613,-0.9460593575952316,-0.03051804379333589
1499369114544,2.532997634851654,0.03051804379333589,-0.03051804379333589
1499369114560,2.532997634851654,-0.03051804379333589,0.03051804379333589
1499369114576,2.7771419851987957,-0.45777065690094787,0.03051804379333589
1499369114592,2.7161058976118966,-1.0681315327688026,0.15259021896690683
1499369114608,2.4719615472647547,-1.0681315327688026,0.09155413138023505
1499369114624,2.227817196917613,-1.1902037079423735,-0.03051804379333589
1499369114640,2.5940337224383256,-1.3122758831159445,-0.15259021896690683
1499369114656,2.3498893720911838,-1.1291676203554744,-0.2746623941404778
1499369114672,2.04470893415737,-1.3122758831159445,-0.09155413138023505
1499369114688,2.3498893720911838,-1.8005645838102282,0.09155413138023505
1499369114704,2.655069810025225,-1.8005645838102282,0.15259021896690683
1499369114720,2.7161058976118966,-1.8616006713969,0.213626306553806
1499369114736,3.1433585107195086,-1.9226367589837992,0.213626306553806
1499369114752,3.3264667734797513,-1.8005645838102282,0.15259021896690683
1499369114768,3.2043945983061803,-1.6174563210497581,0.15259021896690683
1499369114784,2.8381780727854675,-1.5564202334630863,0.09155413138023505
1499369114800,2.655069810025225,-1.3733119707026162,0.03051804379333589
1499369114816,2.410925459678083,-1.2512397955290453,0.09155413138023505
1499369114832,2.410925459678083,-1.3733119707026162,0.09155413138023505
1499369114848,2.410925459678083,-1.0070954451819034,0.15259021896690683
1499369114864,2.105745021744042,-0.8850232700083325,0.03051804379333589
1499369114880,2.105745021744042,-0.8850232700083325,-0.03051804379333589
1499369114896,2.227817196917613,-1.1291676203554744,0.03051804379333589
1499369114912,2.410925459678083,-1.3733119707026162,0.15259021896690683
1499369114928,2.166781109330941,-1.6784924086366573,0.09155413138023505
1499369114944,2.166781109330941,-1.6784924086366573,0.03051804379333589
1499369114960,2.288853284504512,-1.6174563210497581,0.09155413138023505
1499369114976,2.3498893720911838,-1.4343480582895154,0.2746623941404778
1499369114992,2.410925459678083,-1.4343480582895154,0.3967345693140487
1499369115008,2.5940337224383256,-1.4953841458761872,0.45777065690094787
1499369115024,2.5940337224383256,-1.4953841458761872,0.33569848172737693
1499369115040,2.4719615472647547,-1.4343480582895154,0.213626306553806
1499369115056,2.3498893720911838,-1.3122758831159445,0.15259021896690683
1499369115072,2.410925459678083,-1.2512397955290453,0.15259021896690683
1499369115088,2.4719615472647547,-1.1291676203554744,0.213626306553806
1499369115104,2.4719615472647547,-1.0070954451819034,0.33569848172737693
1499369115120,2.7161058976118966,-1.0681315327688026,0.3967345693140487
1499369115136,3.1433585107195086,-1.1291676203554744,0.33569848172737693
1499369115152,3.0823224231326094,-1.0681315327688026,0.3967345693140487
1499369115168,3.0823224231326094,-1.1291676203554744,0.33569848172737693
1499369115184,2.8381780727854675,-1.1902037079423735,0.33569848172737693
1499369115200,3.1433585107195086,-1.3733119707026162,0.2746623941404778
1499369115216,3.5095750362402214,-1.1902037079423735,0.2746623941404778
1499369115232,3.2043945983061803,-1.0070954451819034,0.15259021896690683
1499369115248,3.1433585107195086,-1.0681315327688026,0.15259021896690683
1499369115264,3.2043945983061803,-1.1902037079423735,0.2746623941404778
1499369115280,3.4485389486533222,-1.3122758831159445,0.3967345693140487
1499369115296,3.692683299000464,-1.3733119707026162,0.3967345693140487
1499369115312,3.936827649347606,-1.4953841458761872,0.2746623941404778
1499369115328,3.936827649347606,-1.6174563210497581,0.213626306553806
1499369115344,3.936827649347606,-1.8005645838102282,0.213626306553806
1499369115360,3.997863736934505,-1.8005645838102282,0.213626306553806
1499369115376,3.814755474174035,-1.4343480582895154,0.15259021896690683
1499369115392,3.570611123826893,-1.3122758831159445,0.09155413138023505
1499369115408,3.6316472114137923,-1.4953841458761872,0.15259021896690683
1499369115424,3.997863736934505,-1.2512397955290453,0.15259021896690683
1499369115440,3.936827649347606,-0.8850232700083325,0.03051804379333589
1499369115456,3.7537193865873633,-0.7629510948347615,-0.03051804379333589
1499369115472,3.692683299000464,-1.0681315327688026,0.09155413138023505
1499369115488,3.997863736934505,-1.2512397955290453,0.15259021896690683
1499369115504,4.058899824521177,-1.4343480582895154,0.15259021896690683
1499369115520,3.997863736934505,-1.4343480582895154,0.15259021896690683
1499369115536,3.936827649347606,-1.5564202334630863,0.15259021896690683
1499369115552,3.936827649347606,-1.4953841458761872,0.09155413138023505
1499369115568,3.875791561760934,-1.4343480582895154,0.15259021896690683
1499369115584,3.692683299000464,-1.4953841458761872,0.213626306553806
1499369115600,3.3264667734797513,-1.6174563210497581,0.213626306553806
1499369115616,3.2043945983061803,-1.3122758831159445,0.09155413138023505
1499369115632,3.2654306858930795,-1.1902037079423735,0.09155413138023505
1499369115648,3.2654306858930795,-1.3122758831159445,0.213626306553806
1499369115664,3.3264667734797513,-1.3122758831159445,0.213626306553806
1499369115680,3.3264667734797513,-1.3122758831159445,0.213626306553806
1499369115696,3.3875028610666504,-1.3733119707026162,0.15259021896690683
1499369115712,3.5095750362402214,-1.4343480582895154,0.213626306553806
1499369115728,3.5095750362402214,-1.1902037079423735,0.2746623941404778
1499369115744,3.3875028610666504,-1.3733119707026162,0.213626306553806
1499369115760,3.1433585107195086,-1.3122758831159445,0.213626306553806
1499369115776,2.8992141603723667,-1.0681315327688026,0.09155413138023505
1499369115792,2.9602502479590385,-1.0681315327688026,0.15259021896690683
1499369115808,2.9602502479590385,-0.9460593575952316,0.09155413138023505
1499369115824,2.7161058976118966,-0.8850232700083325,0.15259021896690683
1499369115840,2.8992141603723667,-1.3733119707026162,0.2746623941404778
1499369115856,3.570611123826893,-1.4343480582895154,0.2746623941404778
1499369115872,3.7537193865873633,-1.1902037079423735,0.213626306553806
1499369115888,3.4485389486533222,-1.3122758831159445,0.33569848172737693
1499369115904,3.3875028610666504,-1.3733119707026162,0.45777065690094787
1499369115920,3.5095750362402214,-1.3733119707026162,0.33569848172737693
1499369115936,3.0823224231326094,-1.3122758831159445,0.2746623941404778
1499369115952,2.655069810025225,-1.3122758831159445,0.2746623941404778
1499369115968,2.532997634851654,-0.9460593575952316,0.213626306553806
1499369115984,2.288853284504512,-0.9460593575952316,0.2746623941404778
1499369116000,2.4719615472647547,-1.0070954451819034,0.33569848172737693
1499369116016,2.8992141603723667,-0.6408789196611906,0.3967345693140487
1499369116032,2.7771419851987957,-0.45777065690094787,0.45777065690094787
1499369116048,2.655069810025225,-0.45777065690094787,0.3967345693140487
1499369116064,2.7771419851987957,-0.7629510948347615,0.3967345693140487
1499369116080,2.8381780727854675,-0.8239871824216607,0.3967345693140487
1499369116096,2.9602502479590385,-0.8850232700083325,0.3967345693140487
1499369116112,2.8992141603723667,-1.0070954451819034,0.2746623941404778
1499369116128,2.8992141603723667,-0.8850232700083325,0.09155413138023505
1499369116144,2.7161058976118966,-0.7629510948347615,0.09155413138023505
1499369116160,2.4719615472647547,-0.8239871824216607,0.15259021896690683
1499369116176,2.655069810025225,-1.0070954451819034,0.09155413138023505
1499369116192,2.7771419851987957,-1.0681315327688026,0.03051804379333589
1499369116208,2.7771419851987957,-1.1291676203554744,0.03051804379333589
1499369116224,2.7771419851987957,-1.1291676203554744,0.09155413138023505
1499369116240,2.655069810025225,-1.2512397955290453,0.09155413138023505
1499369116256,2.655069810025225,-1.2512397955290453,0.15259021896690683
1499369116272,2.532997634851654,-1.5564202334630863,0.09155413138023505
1499369116288,2.655069810025225,-1.8616006713969,0.03051804379333589
1499369116304,2.9602502479590385,-1.8005645838102282,0.03051804379333589
1499369116320,3.1433585107195086,-1.6784924086366573,0.15259021896690683
1499369116336,3.3264667734797513,-1.8616006713969,0.15259021896690683
1499369116352,3.0823224231326094,-1.6784924086366573,0.15259021896690683
1499369116368,2.8992141603723667,-1.5564202334630863,0.09155413138023505
1499369116384,3.0823224231326094,-1.4953841458761872,0.09155413138023505
1499369116400,3.3264667734797513,-1.3733119707026162,0.03051804379333589
1499369116416,3.0212863355459376,-1.5564202334630863,0.09155413138023505
1499369116432,2.9602502479590385,-2.04470893415737,0.03051804379333589
1499369116448,3.936827649347606,-1.9226367589837992,-0.03051804379333589
1499369116464,3.997863736934505,-1.739528496223329,-0.09155413138023505
1499369116480,3.6316472114137923,-1.8616006713969,0.09155413138023505
1499369116496,3.7537193865873633,-1.8616006713969,0.15259021896690683
1499369116512,3.997863736934505,-1.8616006713969,0.03051804379333589
1499369116528,3.875791561760934,-1.8616006713969,-0.03051804379333589
1499369116544,3.2654306858930795,-2.04470893415737,-0.03051804379333589
1499369116560,3.2043945983061803,-1.983672846570471,-0.09155413138023505
1499369116576,3.3875028610666504,-1.6784924086366573,0.03051804379333589
1499369116592,3.570611123826893,-1.8616006713969,0.15259021896690683
1499369116608,3.936827649347606,-1.4953841458761872,0.15259021896690683
1499369116624,3.936827649347606,-1.3733119707026162,0.09155413138023505
1499369116640,3.5095750362402214,-1.3733119707026162,0.09155413138023505
1499369116656,3.4485389486533222,-1.6174563210497581,0.09155413138023505
1499369116672,3.6316472114137923,-1.739528496223329,0.213626306553806
1499369116688,3.7537193865873633,-1.6174563210497581,0.33569848172737693
1499369116704,3.692683299000464,-1.6784924086366573,0.45777065690094787
1499369116720,3.7537193865873633,-1.5564202334630863,0.45777065690094787
1499369116736,3.5095750362402214,-1.5564202334630863,0.3967345693140487
1499369116752,3.4485389486533222,-1.6784924086366573,0.3967345693140487
1499369116768,3.3875028610666504,-1.5564202334630863,0.45777065690094787
1499369116784,3.2043945983061803,-1.6174563210497581,0.3967345693140487
1499369116800,3.2654306858930795,-1.3733119707026162,0.33569848172737693
1499369116816,3.0823224231326094,-1.2512397955290453,0.2746623941404778
1499369116832,2.9602502479590385,-1.3733119707026162,0.2746623941404778
1499369116848,3.0823224231326094,-1.4343480582895154,0.2746623941404778
1499369116864,3.0212863355459376,-1.3733119707026162,0.33569848172737693
1499369116880,2.9602502479590385,-1.4343480582895154,0.45777065690094787
1499369116896,3.0823224231326094,-1.4953841458761872,0.45777065690094787
1499369116912,3.2654306858930795,-1.3733119707026162,0.5188067444876197
1499369116928,3.2043945983061803,-1.2512397955290453,0.5188067444876197
1499369116944,2.8381780727854675,-1.3122758831159445,0.45777065690094787
1499369116960,2.532997634851654,-1.0681315327688026,0.213626306553806
1499369116976,2.04470893415737,-1.0681315327688026,-0.03051804379333589
1499369116992,1.8616006713969,-1.0070954451819034,-0.09155413138023505
1499369117008,1.8005645838102282,-1.0070954451819034,-0.03051804379333589
1499369117024,1.4953841458761872,-1.3122758831159445,0.15259021896690683
1499369117040,2.227817196917613,-1.6174563210497581,0.15259021896690683
1499369117056,2.8381780727854675,-1.3733119707026162,0.09155413138023505
1499369117072,2.8381780727854675,-1.3733119707026162,-0.03051804379333589
1499369117088,2.655069810025225,-1.4953841458761872,0.09155413138023505
1499369117104,2.655069810025225,-1.5564202334630863,0.03051804379333589
1499369117120,2.410925459678083,-1.6784924086366573,-0.03051804379333589
1499369117136,1.8005645838102282,-1.9226367589837992,-0.03051804379333589
1499369117152,1.739528496223329,-1.739528496223329,-0.15259021896690683
1499369117168,1.9226367589837992,-1.4343480582895154,-0.213626306553806
1499369117184,1.9226367589837992,-1.6174563210497581,-0.15259021896690683
1499369117200,2.227817196917613,-1.3122758831159445,0.03051804379333589
1499369117216,2.4719615472647547,-0.8239871824216607,0.09155413138023505
1499369117232,2.410925459678083,-0.7629510948347615,0.09155413138023505
1499369117248,2.105745021744042,-0.8850232700083325,0.03051804379333589
1499369117264,2.166781109330941,-1.0681315327688026,0.03051804379333589
1499369117280,2.105745021744042,-1.0070954451819034,0.03051804379333589
1499369117296,1.6784924086366573,-1.0681315327688026,0.03051804379333589
1499369117312,1.739528496223329,-1.1902037079423735,0.09155413138023505
1499369117328,2.166781109330941,-1.0681315327688026,0.09155413138023505
1499369117344,2.166781109330941,-1.0681315327688026,0.03051804379333589
1499369117360,1.983672846570471,-1.0070954451819034,0.15259021896690683
1499369117376,1.8616006713969,-0.9460593575952316,0.213626306553806
1499369117392,1.9226367589837992,-1.0070954451819034,0.15259021896690683
1499369117408,1.983672846570471,-1.0070954451819034,0.09155413138023505
1499369117424,1.8616006713969,-1.1291676203554744,0.09155413138023505
1499369117440,1.8616006713969,-1.1902037079423735,0.15259021896690683
1499369117456,1.8616006713969,-1.1291676203554744,0.15259021896690683
1499369117472,1.983672846570471,-1.1291676203554744,0.15259021896690683
1499369117488,2.166781109330941,-1.1291676203554744,0.213626306553806
1499369117504,2.410925459678083,-1.2512397955290453,0.33569848172737693
1499369117520,2.410925459678083,-1.1291676203554744,0.33569848172737693
1499369117536,2.3498893720911838,-1.0681315327688026,0.2746623941404778
1499369117552,2.105745021744042,-0.9460593575952316,0.15259021896690683
1499369117568,1.739528496223329,-0.9460593575952316,0.15259021896690683
1499369117584,2.04470893415737,-0.9460593575952316,0.09155413138023505
1499369117600,2.105745021744042,-0.7629510948347615,0.09155413138023505
1499369117616,1.983672846570471,-0.6408789196611906,0.09155413138023505
1499369117632,2.288853284504512,-1.0681315327688026,0.09155413138023505
1499369117648,2.655069810025225,-1.0681315327688026,0.15259021896690683
1499369117664,2.532997634851654,-1.0070954451819034,0.213626306553806
1499369117680,2.4719615472647547,-1.2512397955290453,0.15259021896690683
1499369117696,2.4719615472647547,-1.3733119707026162,0.15259021896690683
1499369117712,2.4719615472647547,-1.4953841458761872,0.09155413138023505
1499369117728,2.4719615472647547,-1.6784924086366573,0.03051804379333589
1499369117744,2.410925459678083,-1.6784924086366573,-0.03051804379333589
1499369117760,2.4719615472647547,-1.5564202334630863,-0.15259021896690683
1499369117776,2.4719615472647547,-1.4953841458761872,-0.03051804379333589
1499369117792,2.5940337224383256,-1.3733119707026162,0.03051804379333589
1499369117808,2.4719615472647547,-1.1902037079423735,0.03051804379333589
1499369117824,2.532997634851654,-1.0681315327688026,0.03051804379333589
1499369117840,2.410925459678083,-1.1902037079423735,0.03051804379333589
1499369117856,2.532997634851654,-1.4343480582895154,-0.03051804379333589
1499369117872,2.288853284504512,-1.4953841458761872,-0.09155413138023505
1499369117888,2.410925459678083,-1.6174563210497581,-0.03051804379333589
1499369117904,2.410925459678083,-1.5564202334630863,0.03051804379333589
1499369117920,2.5940337224383256,-1.4953841458761872,0.15259021896690683
1499369117936,2.655069810025225,-1.4953841458761872,0.15259021896690683
1499369117952,2.5940337224383256,-1.3733119707026162,0.2746623941404778
1499369117968,2.532997634851654,-1.3733119707026162,0.2746623941404778
1499369117984,2.655069810025225,-1.2512397955290453,0.2746623941404778
1499369118000,2.532997634851654,-1.1902037079423735,0.213626306553806
1499369118016,2.532997634851654,-1.3122758831159445,0.33569848172737693
1499369118032,2.4719615472647547,-1.3733119707026162,0.3967345693140487
1499369118048,2.532997634851654,-1.3122758831159445,0.3967345693140487
1499369118064,2.532997634851654,-1.4343480582895154,0.3967345693140487
1499369118080,2.5940337224383256,-1.4343480582895154,0.3967345693140487
1499369118096,2.7161058976118966,-1.2512397955290453,0.3967345693140487
1499369118112,2.655069810025225,-1.2512397955290453,0.45777065690094787
1499369118128,2.7771419851987957,-1.2512397955290453,0.33569848172737693
1499369118144,2.4719615472647547,-1.2512397955290453,0.33569848172737693
1499369118160,2.4719615472647547,-1.1902037079423735,0.33569848172737693
1499369118176,2.532997634851654,-1.0681315327688026,0.33569848172737693
1499369118192,2.410925459678083,-0.8239871824216607,0.2746623941404778
1499369118208,2.4719615472647547,-0.8850232700083325,0.33569848172737693
1499369118224,2.655069810025225,-1.2512397955290453,0.33569848172737693
1499369118240,3.0212863355459376,-1.1902037079423735,0.3967345693140487
1499369118256,3.4485389486533222,-1.2512397955290453,0.33569848172737693
1499369118272,3.3875028610666504,-1.3733119707026162,0.2746623941404778
1499369118288,3.2043945983061803,-1.5564202334630863,0.213626306553806
1499369118304,3.1433585107195086,-1.4953841458761872,0.3967345693140487
1499369118320,3.1433585107195086,-1.4953841458761872,0.2746623941404778
1499369118336,3.4485389486533222,-1.4343480582895154,0.2746623941404778
1499369118352,3.5095750362402214,-1.1902037079423735,0.33569848172737693
1499369118368,3.4485389486533222,-1.2512397955290453,0.3967345693140487
1499369118384,3.814755474174035,-1.1291676203554744,0.2746623941404778
1499369118400,3.6316472114137923,-0.9460593575952316,0.15259021896690683
1499369118416,3.5095750362402214,-0.8850232700083325,0.03051804379333589
1499369118432,3.3875028610666504,-1.0681315327688026,0.2746623941404778
1499369118448,3.570611123826893,-1.1902037079423735,0.33569848172737693
1499369118464,3.814755474174035,-1.2512397955290453,0.33569848172737693
1499369118480,3.997863736934505,-1.3122758831159445,0.33569848172737693
1499369118496,3.997863736934505,-1.3733119707026162,0.213626306553806
1499369118512,4.180971999694748,-1.3122758831159445,0.2746623941404778
1499369118528,4.058899824521177,-1.1902037079423735,0.33569848172737693
1499369118544,3.814755474174035,-1.2512397955290453,0.3967345693140487
1499369118560,3.692683299000464,-1.1291676203554744,0.2746623941404778
1499369118576,3.692683299000464,-1.1291676203554744,0.213626306553806
1499369118592,3.692683299000464,-1.1291676203554744,0.213626306553806
1499369118608,3.814755474174035,-1.3122758831159445,0.213626306553806
1499369118624,3.7537193865873633,-1.4953841458761872,0.15259021896690683
1499369118640,3.692683299000464,-1.3733119707026162,0.09155413138023505
1499369118656,3.6316472114137923,-1.3733119707026162,0.15259021896690683
1499369118672,3.6316472114137923,-1.3733119707026162,0.213626306553806
1499369118688,3.7537193865873633,-1.1291676203554744,0.33569848172737693
1499369118704,3.7537193865873633,-1.1291676203554744,0.3967345693140487
1499369118720,3.2654306858930795,-0.8850232700083325,0.33569848172737693
1499369118736,2.8992141603723667,-0.5188067444876197,0.213626306553806
1499369118752,2.8992141603723667,-0.213626306553806,0.213626306553806
1499369118768,2.5940337224383256,0.09155413138023505,0.213626306553806
1499369118784,2.227817196917613,0.33569848172737693,0.2746623941404778
1499369118800,2.227817196917613,-0.09155413138023505,0.33569848172737693
1499369118816,2.9602502479590385,-0.2746623941404778,0.3967345693140487
1499369118832,3.4485389486533222,-0.09155413138023505,0.5188067444876197
1499369118848,3.2654306858930795,-0.45777065690094787,0.5798428320745188
1499369118864,3.3875028610666504,-0.7019150072480898,0.6408789196611906
1499369118880,3.7537193865873633,-1.0070954451819034,0.7629510948347615
1499369118896,3.7537193865873633,-1.3122758831159445,0.6408789196611906
1499369118912,3.3264667734797513,-1.5564202334630863,0.45777065690094787
1499369118928,3.1433585107195086,-1.4343480582895154,0.33569848172737693
1499369118944,3.0212863355459376,-1.4343480582895154,0.33569848172737693
1499369118960,3.2043945983061803,-1.6174563210497581,0.3967345693140487
1499369118976,3.3264667734797513,-1.1902037079423735,0.33569848172737693
1499369118992,3.2043945983061803,-0.9460593575952316,0.2746623941404778
1499369119008,2.8381780727854675,-0.8850232700083325,0.33569848172737693
1499369119024,2.8381780727854675,-1.0681315327688026,0.213626306553806
1499369119040,3.0212863355459376,-1.1291676203554744,0.213626306553806
1499369119056,3.1433585107195086,-1.0070954451819034,0.213626306553806
1499369119072,3.0212863355459376,-1.0070954451819034,0.213626306553806
1499369119088,2.9602502479590385,-1.1291676203554744,0.213626306553806
1499369119104,3.1433585107195086,-1.1902037079423735,0.2746623941404778
1499369119120,2.9602502479590385,-1.2512397955290453,0.2746623941404778
1499369119136,2.8992141603723667,-1.3733119707026162,0.33569848172737693
1499369119152,3.0212863355459376,-1.4343480582895154,0.213626306553806
1499369119168,3.1433585107195086,-1.3733119707026162,0.09155413138023505
1499369119184,3.1433585107195086,-1.4343480582895154,0.15259021896690683
1499369119200,3.2043945983061803,-1.4953841458761872,0.213626306553806
1499369119216,3.0212863355459376,-1.3733119707026162,0.15259021896690683
1499369119232,2.8992141603723667,-1.4343480582895154,0.09155413138023505
1499369119248,2.8992141603723667,-1.5564202334630863,0.09155413138023505
1499369119264,2.9602502479590385,-1.3122758831159445,0.09155413138023505
1499369119280,2.8381780727854675,-1.1902037079423735,0.09155413138023505
1499369119296,2.8381780727854675,-1.4953841458761872,0.09155413138023505
1499369119312,2.9602502479590385,-1.3122758831159445,-0.03051804379333589
1499369119328,2.8992141603723667,-1.1291676203554744,-0.03051804379333589
1499369119344,2.8992141603723667,-1.2512397955290453,-0.03051804379333589
1499369119360,2.8381780727854675,-1.1291676203554744,0.15259021896690683
1499369119376,2.5940337224383256,-1.3122758831159445,0.15259021896690683
1499369119392,3.0212863355459376,-1.739528496223329,0.15259021896690683
1499369119408,3.5095750362402214,-1.6174563210497581,0.15259021896690683
1499369119424,3.6316472114137923,-1.4953841458761872,0.15259021896690683
1499369119440,3.4485389486533222,-1.4953841458761872,0.2746623941404778
1499369119456,3.5095750362402214,-1.4953841458761872,0.2746623941404778
1499369119472,3.5095750362402214,-1.5564202334630863,0.2746623941404778
1499369119488,3.0212863355459376,-1.6174563210497581,0.15259021896690683
1499369119504,2.8381780727854675,-1.3733119707026162,0.09155413138023505
1499369119520,2.7161058976118966,-1.2512397955290453,0.03051804379333589
1499369119536,2.7771419851987957,-1.4343480582895154,0.09155413138023505
1499369119552,3.1433585107195086,-1.3733119707026162,0.15259021896690683
1499369119568,3.2654306858930795,-1.0681315327688026,0.15259021896690683
1499369119584,3.0823224231326094,-1.0681315327688026,0.03051804379333589
1499369119600,2.8381780727854675,-1.1902037079423735,-0.03051804379333589
1499369119616,2.8992141603723667,-1.3733119707026162,-0.09155413138023505
1499369119632,3.0212863355459376,-1.1902037079423735,0.09155413138023505
1499369119648,2.8992141603723667,-1.1902037079423735,0.15259021896690683
1499369119664,2.8992141603723667,-1.1902037079423735,0.09155413138023505
1499369119680,3.0212863355459376,-1.3122758831159445,0.15259021896690683
1499369119696,2.8381780727854675,-1.4343480582895154,0.213626306553806
1499369119712,3.0212863355459376,-1.3733119707026162,0.213626306553806
1499369119728,2.9602502479590385,-1.4343480582895154,0.213626306553806
1499369119744,2.9602502479590385,-1.3733119707026162,0.15259021896690683
1499369119760,2.8381780727854675,-1.2512397955290453,0.15259021896690683
1499369119776,2.7771419851987957,-1.4343480582895154,0.213626306553806
1499369119792,2.5940337224383256,-1.1902037079423735,0.213626306553806
1499369119808,2.410925459678083,-1.2512397955290453,0.213626306553806
1499369119824,2.532997634851654,-1.3733119707026162,0.213626306553806
1499369119840,2.8381780727854675,-1.3733119707026162,0.15259021896690683
1499369119856,3.1433585107195086,-1.1291676203554744,0.213626306553806
1499369119872,3.0823224231326094,-1.3122758831159445,0.2746623941404778
1499369119888,3.0823224231326094,-1.3122758831159445,0.15259021896690683
1499369119904,3.0823224231326094,-1.0681315327688026,0.03051804379333589
1499369119920,2.9602502479590385,-1.1291676203554744,-0.09155413138023505
1499369119936,2.8992141603723667,-1.1291676203554744,0.03051804379333589
1499369119952,2.8381780727854675,-1.1291676203554744,0.03051804379333589
1499369119968,2.7161058976118966,-1.4953841458761872,0.09155413138023505
1499369119984,3.3875028610666504,-1.8005645838102282,-0.03051804379333589
1499369120000,3.814755474174035,-1.6174563210497581,-0.15259021896690683
1499369120016,3.3264667734797513,-1.6784924086366573,-0.03051804379333589
1499369120032,3.2043945983061803,-1.739528496223329,-0.03051804379333589
1499369120048,3.570611123826893,-1.983672846570471,-0.09155413138023505
1499369120064,3.570611123826893,-2.04470893415737,-0.09155413138023505
1499369120080,3.2043945983061803,-2.105745021744042,-0.213626306553806
1499369120096,2.8992141603723667,-1.9226367589837992,-0.33569848172737693
1499369120112,2.532997634851654,-1.9226367589837992,-0.33569848172737693
1499369120128,2.410925459678083,-2.04470893415737,-0.2746623941404778
1499369120144,2.532997634851654,-1.6784924086366573,-0.213626306553806
1499369120160,2.7161058976118966,-1.4343480582895154,-0.15259021896690683
1499369120176,2.7771419851987957,-1.2512397955290453,-0.15259021896690683
1499369120192,2.7771419851987957,-1.4343480582895154,-0.213626306553806
1499369120208,2.7771419851987957,-1.3122758831159445,-0.2746623941404778
1499369120224,2.5940337224383256,-1.3122758831159445,-0.15259021896690683
1499369120240,2.288853284504512,-1.4343480582895154,-0.213626306553806
1499369120256,2.3498893720911838,-1.3733119707026162,-0.213626306553806
1499369120272,2.3498893720911838,-1.4953841458761872,-0.03051804379333589
1499369120288,2.410925459678083,-1.6174563210497581,0.03051804379333589
1499369120304,2.410925459678083,-1.5564202334630863,0.09155413138023505
1499369120320,2.5940337224383256,-1.5564202334630863,0.09155413138023505
1499369120336,2.5940337224383256,-1.3733119707026162,0.15259021896690683
1499369120352,2.288853284504512,-1.3733119707026162,0.15259021896690683
1499369120368,1.9226367589837992,-1.3733119707026162,0.09155413138023505
1499369120384,1.6784924086366573,-1.3122758831159445,0.09155413138023505
1499369120400,1.6784924086366573,-1.3733119707026162,0.15259021896690683
1499369120416,1.8005645838102282,-1.4953841458761872,0.09155413138023505
1499369120432,2.04470893415737,-1.4953841458761872,0.09155413138023505
1499369120448,2.105745021744042,-1.4343480582895154,0.15259021896690683
1499369120464,2.04470893415737,-1.5564202334630863,0.03051804379333589
1499369120480,1.6784924086366573,-1.3122758831159445,-0.09155413138023505
1499369120496,1.2512397955290453,-1.4343480582895154,-0.09155413138023505
1499369120512,1.3733119707026162,-1.3122758831159445,-0.15259021896690683
1499369120528,1.2512397955290453,-1.0681315327688026,-0.09155413138023505
1499369120544,1.3733119707026162,-1.0681315327688026,-0.03051804379333589
1499369120560,1.8005645838102282,-1.3733119707026162,0.09155413138023505
1499369120576,2.166781109330941,-1.4953841458761872,0.15259021896690683
1499369120592,2.227817196917613,-1.3733119707026162,0.15259021896690683
1499369120608,2.288853284504512,-1.5564202334630863,0.03051804379333589
1499369120624,2.410925459678083,-1.8005645838102282,0.03051804379333589
1499369120640,2.4719615472647547,-1.739528496223329,0.03051804379333589
1499369120656,2.410925459678083,-1.6784924086366573,-0.03051804379333589
1499369120672,2.166781109330941,-1.6174563210497581,-0.09155413138023505
1499369120688,2.04470893415737,-1.3733119707026162,-0.09155413138023505
1499369120704,2.288853284504512,-1.2512397955290453,-0.03051804379333589
1499369120720,2.410925459678083,-0.9460593575952316,-0.03051804379333589
1499369120736,2.4719615472647547,-0.8239871824216607,-0.09155413138023505
1499369120752,2.410925459678083,-1.0070954451819034,-0.09155413138023505
1499369120768,2.5940337224383256,-1.3122758831159445,-0.15259021896690683
1499369120784,2.532997634851654,-1.4953841458761872,-0.15259021896690683
1499369120800,2.7161058976118966,-1.6784924086366573,-0.15259021896690683
1499369120816,2.8381780727854675,-1.6784924086366573,-0.15259021896690683
1499369120832,2.7771419851987957,-1.5564202334630863,-0.15259021896690683
1499369120848,2.8381780727854675,-1.4953841458761872,-0.03051804379333589
1499369120864,2.8381780727854675,-1.4953841458761872,0.09155413138023505
1499369120880,2.7161058976118966,-1.3733119707026162,0.15259021896690683
1499369120896,2.5940337224383256,-1.1902037079423735,0.03051804379333589
1499369120912,2.532997634851654,-1.3122758831159445,0.09155413138023505
1499369120928,2.655069810025225,-1.3122758831159445,0.15259021896690683
1499369120944,2.7161058976118966,-1.3733119707026162,0.213626306553806
1499369120960,2.7161058976118966,-1.3122758831159445,0.213626306553806
1499369120976,2.8381780727854675,-1.2512397955290453,0.15259021896690683
1499369120992,2.7161058976118966,-1.1902037079423735,0.15259021896690683
1499369121008,2.655069810025225,-1.0681315327688026,0.09155413138023505
1499369121024,2.7771419851987957,-1.1291676203554744,0.09155413138023505
1499369121040,2.7161058976118966,-1.2512397955290453,0.15259021896690683
1499369121056,2.4719615472647547,-1.2512397955290453,0.03051804379333589
1499369121072,3.0823224231326094,-1.2512397955290453,0.15259021896690683
1499369121088,3.1433585107195086,-0.9460593575952316,0.15259021896690683
1499369121104,3.0823224231326094,-0.8850232700083325,0.09155413138023505
1499369121120,3.1433585107195086,-1.0681315327688026,0.15259021896690683
1499369121136,3.3875028610666504,-1.1902037079423735,0.2746623941404778
1499369121152,3.6316472114137923,-1.3122758831159445,0.213626306553806
1499369121168,4.119935912108076,-1.3122758831159445,0.213626306553806
1499369121184,4.058899824521177,-1.5564202334630863,0.2746623941404778
1499369121200,4.058899824521177,-1.8616006713969,0.2746623941404778
1499369121216,4.242008087281647,-1.8005645838102282,0.15259021896690683
1499369121232,4.486152437628789,-1.5564202334630863,0.15259021896690683
1499369121248,4.303044174868319,-0.9460593575952316,0.15259021896690683
1499369121264,4.180971999694748,-0.8850232700083325,0.15259021896690683
1499369121280,4.42511635004189,-1.0070954451819034,0.213626306553806
1499369121296,4.303044174868319,-1.0070954451819034,0.15259021896690683
1499369121312,3.997863736934505,-1.0681315327688026,-0.15259021896690683
1499369121328,3.5095750362402214,-1.3122758831159445,-0.09155413138023505
1499369121344,3.3875028610666504,-1.4343480582895154,-0.03051804379333589
1499369121360,3.2654306858930795,-1.5564202334630863,0.09155413138023505
1499369121376,3.3264667734797513,-1.6174563210497581,0.09155413138023505
1499369121392,3.2043945983061803,-1.4953841458761872,0.09155413138023505
1499369121408,2.9602502479590385,-1.4953841458761872,0.15259021896690683
1499369121424,2.8992141603723667,-1.4953841458761872,0.213626306553806
1499369121440,2.9602502479590385,-1.5564202334630863,0.213626306553806
1499369121456,3.2043945983061803,-1.4953841458761872,0.2746623941404778
1499369121472,3.3264667734797513,-1.4343480582895154,0.33569848172737693
1499369121488,3.1433585107195086,-1.4953841458761872,0.33569848172737693
1499369121504,3.3875028610666504,-1.4953841458761872,0.33569848172737693
1499369121520,3.3875028610666504,-1.3122758831159445,0.33569848172737693
1499369121536,3.3264667734797513,-1.1902037079423735,0.3967345693140487
1499369121552,3.3875028610666504,-1.0681315327688026,0.3967345693140487
1499369121568,3.570611123826893,-0.7629510948347615,0.3967345693140487
1499369121584,3.4485389486533222,-0.6408789196611906,0.3967345693140487
1499369121600,3.3875028610666504,-0.8239871824216607,0.3967345693140487
1499369121616,3.1433585107195086,-0.8239871824216607,0.2746623941404778
1499369121632,2.9602502479590385,-0.8850232700083325,0.213626306553806
1499369121648,3.0212863355459376,-0.8850232700083325,0.15259021896690683
1499369121664,2.7161058976118966,-0.7019150072480898,0.213626306553806
1499369121680,2.655069810025225,-0.8239871824216607,0.2746623941404778
1499369121696,3.1433585107195086,-1.2512397955290453,0.3967345693140487
1499369121712,3.6316472114137923,-1.1291676203554744,0.3967345693140487
1499369121728,3.6316472114137923,-1.0681315327688026,0.33569848172737693
1499369121744,3.3875028610666504,-1.0681315327688026,0.33569848172737693
1499369121760,3.4485389486533222,-1.1291676203554744,0.45777065690094787
1499369121776,3.3264667734797513,-1.0070954451819034,0.45777065690094787
1499369121792,2.9602502479590385,-1.0681315327688026,0.33569848172737693
1499369121808,2.7771419851987957,-1.0681315327688026,0.2746623941404778
1499369121824,2.655069810025225,-0.9460593575952316,0.2746623941404778
1499369121840,2.7771419851987957,-1.1291676203554744,0.3967345693140487
1499369121856,3.2043945983061803,-1.2512397955290453,0.45777065690094787
1499369121872,3.5095750362402214,-0.9460593575952316,0.45777065690094787
1499369121888,3.5095750362402214,-0.9460593575952316,0.33569848172737693
1499369121904,3.3875028610666504,-1.0681315327688026,0.33569848172737693
1499369121920,3.3264667734797513,-1.1902037079423735,0.33569848172737693
1499369121936,3.2654306858930795,-1.0681315327688026,0.2746623941404778
1499369121952,3.0823224231326094,-1.1902037079423735,0.2746623941404778
1499369121968,3.0212863355459376,-1.0681315327688026,0.2746623941404778
1499369121984,3.2654306858930795,-1.0070954451819034,0.33569848172737693
1499369122000,3.2654306858930795,-1.1291676203554744,0.45777065690094787
1499369122016,3.2654306858930795,-1.1902037079423735,0.45777065690094787
1499369122032,3.2654306858930795,-1.1902037079423735,0.45777065690094787
1499369122048,3.1433585107195086,-1.1291676203554744,0.2746623941404778
1499369122064,2.9602502479590385,-1.1902037079423735,0.213626306553806
1499369122080,2.8992141603723667,-1.2512397955290453,0.213626306553806
1499369122096,2.8992141603723667,-1.2512397955290453,0.2746623941404778
1499369122112,2.7161058976118966,-1.1902037079423735,0.2746623941404778
1499369122128,2.7771419851987957,-1.2512397955290453,0.2746623941404778
1499369122144,3.1433585107195086,-1.3122758831159445,0.2746623941404778
1499369122160,3.2043945983061803,-1.2512397955290453,0.2746623941404778
1499369122176,3.1433585107195086,-1.6174563210497581,0.213626306553806
1499369122192,2.9602502479590385,-1.4343480582895154,0.15259021896690683
1499369122208,2.655069810025225,-1.2512397955290453,0.03051804379333589
1499369122224,2.655069810025225,-1.1902037079423735,0.03051804379333589
1499369122240,2.7771419851987957,-1.0681315327688026,0.03051804379333589
1499369122256,2.532997634851654,-1.1291676203554744,0.15259021896690683
1499369122272,2.8992141603723667,-1.5564202334630863,0.213626306553806
1499369122288,3.6316472114137923,-1.5564202334630863,0.213626306553806
1499369122304,3.570611123826893,-1.4343480582895154,0.15259021896690683
1499369122320,3.3264667734797513,-1.4343480582895154,0.2746623941404778
1499369122336,3.4485389486533222,-1.4343480582895154,0.33569848172737693
1499369122352,3.570611123826893,-1.4343480582895154,0.2746623941404778
1499369122368,3.1433585107195086,-1.4953841458761872,0.15259021896690683
1499369122384,2.655069810025225,-1.4953841458761872,0.09155413138023505
1499369122400,2.8381780727854675,-1.3733119707026162,0.15259021896690683
1499369122416,2.7161058976118966,-1.3733119707026162,0.15259021896690683
1499369122432,2.8381780727854675,-1.4343480582895154,0.213626306553806
1499369122448,2.9602502479590385,-0.9460593575952316,0.213626306553806
1499369122464,2.8381780727854675,-0.7629510948347615,0.15259021896690683
1499369122480,2.7161058976118966,-0.9460593575952316,0.09155413138023505
1499369122496,2.7771419851987957,-1.1902037079423735,0.09155413138023505
1499369122512,2.8992141603723667,-1.1291676203554744,0.15259021896690683
1499369122528,2.7771419851987957,-1.1902037079423735,0.15259021896690683
1499369122544,2.7161058976118966,-1.1291676203554744,0.15259021896690683
1499369122560,2.8381780727854675,-1.1902037079423735,0.213626306553806
1499369122576,2.8992141603723667,-1.2512397955290453,0.213626306553806
1499369122592,3.0823224231326094,-1.3122758831159445,0.2746623941404778
1499369122608,3.0212863355459376,-1.3122758831159445,0.15259021896690683
1499369122624,2.8381780727854675,-1.1902037079423735,0.15259021896690683
1499369122640,2.5940337224383256,-1.0681315327688026,0.213626306553806
1499369122656,2.5940337224383256,-1.0681315327688026,0.213626306553806
1499369122672,2.7161058976118966,-1.0070954451819034,0.2746623941404778
1499369122688,2.4719615472647547,-1.0070954451819034,0.213626306553806
1499369122704,2.5940337224383256,-1.0681315327688026,0.15259021896690683
1499369122720,2.227817196917613,-1.1291676203554744,0.15259021896690683
1499369122736,1.8616006713969,-1.1291676203554744,0.33569848172737693
1499369122752,1.983672846570471,-1.5564202334630863,0.33569848172737693
1499369122768,3.0823224231326094,-1.6784924086366573,0.2746623941404778
1499369122784,3.3264667734797513,-1.3733119707026162,0.15259021896690683
1499369122800,2.655069810025225,-1.4953841458761872,0.03051804379333589
1499369122816,2.7161058976118966,-1.6174563210497581,0.03051804379333589
1499369122832,3.0212863355459376,-1.4343480582895154,0.15259021896690683
1499369122848,2.5940337224383256,-1.4343480582895154,0.15259021896690683
1499369122864,2.532997634851654,-1.739528496223329,0.15259021896690683
1499369122880,2.8381780727854675,-1.3122758831159445,0.03051804379333589
1499369122896,2.8381780727854675,-1.1291676203554744,0.15259021896690683
1499369122912,3.0823224231326094,-1.2512397955290453,0.33569848172737693
1499369122928,3.3264667734797513,-1.2512397955290453,0.2746623941404778
1499369122944,3.2654306858930795,-1.2512397955290453,0.213626306553806
1499369122960,3.1433585107195086,-1.4343480582895154,0.09155413138023505
1499369122976,3.0212863355459376,-1.4343480582895154,-0.03051804379333589
1499369122992,3.0823224231326094,-1.3122758831159445,-0.03051804379333589
1499369123008,3.3264667734797513,-1.4343480582895154,0.09155413138023505
1499369123024,3.692683299000464,-1.0681315327688026,0.213626306553806
1499369123040,3.692683299000464,-0.7629510948347615,0.213626306553806
1499369123056,3.3875028610666504,-0.7629510948347615,0.15259021896690683
1499369123072,3.0823224231326094,-0.8850232700083325,0.15259021896690683
1499369123088,3.2654306858930795,-0.8850232700083325,0.09155413138023505
1499369123104,3.2654306858930795,-0.9460593575952316,0.15259021896690683
1499369123120,2.8381780727854675,-1.0070954451819034,0.213626306553806
1499369123136,2.8992141603723667,-1.0681315327688026,0.213626306553806
1499369123152,3.2043945983061803,-1.0070954451819034,0.2746623941404778
1499369123168,3.0212863355459376,-1.0681315327688026,0.33569848172737693
1499369123184,2.8381780727854675,-1.1291676203554744,0.2746623941404778
1499369123200,2.8992141603723667,-1.1902037079423735,0.213626306553806
1499369123216,2.5940337224383256,-1.1902037079423735,0.213626306553806
1499369123232,2.532997634851654,-1.1291676203554744,0.213626306553806
1499369123248,2.410925459678083,-1.0681315327688026,0.15259021896690683
1499369123264,2.166781109330941,-1.1902037079423735,0.15259021896690683
1499369123280,1.983672846570471,-1.3733119707026162,0.15259021896690683
1499369123296,2.105745021744042,-1.6174563210497581,0.09155413138023505
1499369123312,2.3498893720911838,-1.5564202334630863,0.09155413138023505
1499369123328,2.410925459678083,-1.3122758831159445,0.03051804379333589
1499369123344,2.166781109330941,-1.5564202334630863,0.03051804379333589
1499369123360,2.166781109330941,-1.4953841458761872,-0.09155413138023505
1499369123376,1.9226367589837992,-1.3122758831159445,-0.09155413138023505
1499369123392,1.8005645838102282,-1.3122758831159445,-0.213626306553806
1499369123408,1.8616006713969,-1.1902037079423735,-0.15259021896690683
1499369123424,1.9226367589837992,-1.0681315327688026,-0.09155413138023505
1499369123440,1.9226367589837992,-1.4343480582895154,0.03051804379333589
1499369123456,2.5940337224383256,-1.6174563210497581,0.03051804379333589
1499369123472,2.7771419851987957,-1.3733119707026162,-0.03051804379333589
1499369123488,2.410925459678083,-1.4343480582895154,0.09155413138023505
1499369123504,2.227817196917613,-1.4343480582895154,0.15259021896690683
1499369123520,2.166781109330941,-1.4343480582895154,0.09155413138023505
1499369123536,1.9226367589837992,-1.3733119707026162,0.03051804379333589
1499369123552,1.8005645838102282,-1.3733119707026162,0.03051804379333589
1499369123568,1.6784924086366573,-1.2512397955290453,-0.03051804379333589
1499369123584,1.6174563210497581,-1.1902037079423735,-0.03051804379333589
1499369123600,1.8005645838102282,-1.3733119707026162,0.09155413138023505
1499369123616,2.04470893415737,-1.0681315327688026,0.15259021896690683
1499369123632,2.227817196917613,-0.8850232700083325,0.03051804379333589
1499369123648,1.8616006713969,-1.1291676203554744,-0.03051804379333589
1499369123664,1.983672846570471,-1.4953841458761872,0.09155413138023505
1499369123680,2.227817196917613,-1.4953841458761872,0.09155413138023505
1499369123696,2.166781109330941,-1.6174563210497581,0.09155413138023505
1499369123712,2.410925459678083,-1.6174563210497581,0.03051804379333589
1499369123728,2.655069810025225,-1.6784924086366573,0.03051804379333589
1499369123744,2.532997634851654,-1.6174563210497581,0.03051804379333589
1499369123760,2.410925459678083,-1.6174563210497581,0.03051804379333589
1499369123776,2.227817196917613,-1.5564202334630863,0.03051804379333589
1499369123792,1.8616006713969,-1.3733119707026162,-0.09155413138023505
1499369123808,1.6174563210497581,-1.3733119707026162,-0.09155413138023505
1499369123824,1.739528496223329,-1.4953841458761872,-0.03051804379333589
1499369123840,1.8616006713969,-1.4343480582895154,-0.09155413138023505
1499369123856,2.166781109330941,-1.4953841458761872,-0.09155413138023505
1499369123872,2.410925459678083,-1.5564202334630863,-0.09155413138023505
1499369123888,2.410925459678083,-1.5564202334630863,-0.03051804379333589
1499369123904,2.410925459678083,-1.5564202334630863,-0.03051804379333589
1499369123920,2.410925459678083,-1.739528496223329,-0.09155413138023505
1499369123936,2.227817196917613,-1.5564202334630863,-0.09155413138023505
1499369123952,1.8005645838102282,-1.5564202334630863,-0.09155413138023505
1499369123968,2.166781109330941,-1.6784924086366573,-0.09155413138023505
1499369123984,2.166781109330941,-1.4343480582895154,-0.03051804379333589
1499369124000,2.166781109330941,-1.3122758831159445,-0.09155413138023505
1499369124016,2.04470893415737,-1.5564202334630863,-0.03051804379333589
1499369124032,2.105745021744042,-1.9226367589837992,0.03051804379333589
1499369124048,2.288853284504512,-1.8616006713969,0.03051804379333589
1499369124064,2.5940337224383256,-1.8005645838102282,-0.09155413138023505
1499369124080,2.5940337224383256,-1.8616006713969,-0.09155413138023505
1499369124096,2.532997634851654,-1.8005645838102282,-0.03051804379333589
1499369124112,2.4719615472647547,-1.739528496223329,-0.09155413138023505
1499369124128,2.4719615472647547,-1.5564202334630863,-0.09155413138023505
1499369124144,2.288853284504512,-1.2512397955290453,-0.09155413138023505
1499369124160,2.288853284504512,-1.3733119707026162,0.03051804379333589
1499369124176,2.532997634851654,-1.1902037079423735,0.03051804379333589
1499369124192,2.655069810025225,-0.8850232700083325,-0.03051804379333589
1499369124208,2.7161058976118966,-0.8850232700083325,-0.09155413138023505
1499369124224,2.5940337224383256,-1.0070954451819034,0.09155413138023505
1499369124240,2.532997634851654,-1.3122758831159445,0.15259021896690683
1499369124256,2.655069810025225,-1.4343480582895154,0.15259021896690683
1499369124272,2.8992141603723667,-1.5564202334630863,0.09155413138023505
1499369124288,2.7771419851987957,-1.3733119707026162,0.03051804379333589
1499369124304,2.655069810025225,-1.2512397955290453,0.09155413138023505
1499369124320,2.410925459678083,-1.3122758831159445,0.15259021896690683
1499369124336,2.288853284504512,-1.1291676203554744,0.2746623941404778
1499369124352,2.166781109330941,-1.1291676203554744,0.2746623941404778
1499369124368,2.166781109330941,-1.0681315327688026,0.2746623941404778
1499369124384,2.227817196917613,-1.0070954451819034,0.2746623941404778
1499369124400,2.410925459678083,-1.0070954451819034,0.213626306553806
1499369124416,2.5940337224383256,-1.0070954451819034,0.213626306553806
1499369124432,2.655069810025225,-0.9460593575952316,0.2746623941404778
1499369124448,2.7161058976118966,-1.0070954451819034,0.3967345693140487
1499369124464,2.7771419851987957,-1.0070954451819034,0.5188067444876197
1499369124480,2.7771419851987957,-1.0070954451819034,0.5188067444876197
1499369124496,2.8381780727854675,-1.2512397955290453,0.5188067444876197
1499369124512,2.532997634851654,-1.1291676203554744,0.45777065690094787
1499369124528,2.655069810025225,-1.0070954451819034,0.45777065690094787
1499369124544,2.9602502479590385,-0.9460593575952316,0.5188067444876197
1499369124560,2.8992141603723667,-0.8239871824216607,0.5188067444876197
1499369124576,2.7771419851987957,-1.0070954451819034,0.45777065690094787
1499369124592,2.8381780727854675,-1.3122758831159445,0.5798428320745188
1499369124608,3.0823224231326094,-1.3733119707026162,0.5798428320745188
1499369124624,3.2043945983061803,-1.4343480582895154,0.45777065690094787
1499369124640,3.0823224231326094,-1.4953841458761872,0.33569848172737693
1499369124656,2.7771419851987957,-1.6174563210497581,0.213626306553806
1499369124672,2.655069810025225,-1.4343480582895154,0.09155413138023505
1499369124688,2.532997634851654,-1.3733119707026162,0.03051804379333589
1499369124704,2.5940337224383256,-1.1902037079423735,0.03051804379333589
1499369124720,2.5940337224383256,-1.0070954451819034,0.09155413138023505
1499369124736,2.8992141603723667,-1.1902037079423735,0.213626306553806
1499369124752,3.5095750362402214,-1.3122758831159445,0.213626306553806
1499369124768,3.7537193865873633,-1.1902037079423735,0.213626306553806
1499369124784,3.5095750362402214,-1.1902037079423735,0.09155413138023505
1499369124800,3.4485389486533222,-1.3733119707026162,0.03051804379333589
1499369124816,3.570611123826893,-1.4953841458761872,0.09155413138023505
1499369124832,3.3264667734797513,-1.4343480582895154,0.15259021896690683
1499369124848,3.2654306858930795,-1.3122758831159445,0.09155413138023505
1499369124864,3.2654306858930795,-1.1902037079423735,0.09155413138023505
1499369124880,3.3264667734797513,-1.2512397955290453,0.15259021896690683
1499369124896,3.3264667734797513,-1.3122758831159445,0.213626306553806
1499369124912,3.3264667734797513,-1.4343480582895154,0.2746623941404778
1499369124928,3.4485389486533222,-1.3733119707026162,0.2746623941404778
1499369124944,3.3875028610666504,-1.3122758831159445,0.213626306553806
1499369124960,3.3875028610666504,-1.3122758831159445,0.2746623941404778
1499369124976,3.4485389486533222,-1.4343480582895154,0.2746623941404778
1499369124992,3.4485389486533222,-1.3122758831159445,0.3967345693140487
1499369125008,3.4485389486533222,-1.3733119707026162,0.3967345693140487
1499369125024,3.6316472114137923,-1.3733119707026162,0.33569848172737693
1499369125040,3.6316472114137923,-1.3122758831159445,0.2746623941404778
1499369125056,3.4485389486533222,-1.1291676203554744,0.213626306553806
1499369125072,3.2043945983061803,-1.3122758831159445,0.213626306553806
1499369125088,3.0212863355459376,-1.1902037079423735,0.09155413138023505
1499369125104,2.8992141603723667,-1.1902037079423735,0.09155413138023505
1499369125120,3.1433585107195086,-1.0070954451819034,0.09155413138023505
1499369125136,2.8992141603723667,-0.8850232700083325,0.15259021896690683
1499369125152,2.8381780727854675,-1.0070954451819034,0.15259021896690683
1499369125168,3.3264667734797513,-1.3733119707026162,0.2746623941404778
1499369125184,3.814755474174035,-1.3733119707026162,0.2746623941404778
1499369125200,3.7537193865873633,-1.4343480582895154,0.2746623941404778
1499369125216,3.4485389486533222,-1.4343480582895154,0.33569848172737693
1499369125232,3.570611123826893,-1.5564202334630863,0.2746623941404778
1499369125248,3.6316472114137923,-1.4953841458761872,0.2746623941404778
1499369125264,3.2043945983061803,-1.6174563210497581,0.213626306553806
1499369125280,3.1433585107195086,-1.5564202334630863,0.09155413138023505
1499369125296,3.3264667734797513,-1.2512397955290453,0.09155413138023505
1499369125312,3.2654306858930795,-1.2512397955290453,0.15259021896690683
1499369125328,3.570611123826893,-1.3122758831159445,0.2746623941404778
1499369125344,3.7537193865873633,-0.8850232700083325,0.33569848172737693
1499369125360,3.692683299000464,-0.8850232700083325,0.2746623941404778
1499369125376,3.3875028610666504,-1.0070954451819034,0.15259021896690683
1499369125392,3.570611123826893,-1.3122758831159445,0.15259021896690683
1499369125408,3.6316472114137923,-1.2512397955290453,0.2746623941404778
1499369125424,3.4485389486533222,-1.1902037079423735,0.213626306553806
1499369125440,3.2654306858930795,-1.1291676203554744,0.2746623941404778
1499369125456,3.2654306858930795,-1.1291676203554744,0.2746623941404778
1499369125472,3.2654306858930795,-1.2512397955290453,0.33569848172737693
1499369125488,3.0823224231326094,-1.3122758831159445,0.33569848172737693
1499369125504,3.1433585107195086,-1.3122758831159445,0.2746623941404778
1499369125520,3.2043945983061803,-1.3733119707026162,0.15259021896690683
1499369125536,3.0212863355459376,-1.2512397955290453,0.15259021896690683
1499369125552,2.7771419851987957,-1.3733119707026162,0.213626306553806
1499369125568,2.7161058976118966,-1.3733119707026162,0.213626306553806
1499369125584,2.8381780727854675,-1.2512397955290453,0.15259021896690683
1499369125600,2.8992141603723667,-1.3733119707026162,0.09155413138023505
1499369125616,3.0823224231326094,-1.4343480582895154,0.09155413138023505
1499369125632,3.2654306858930795,-1.3122758831159445,0.15259021896690683
1499369125648,3.1433585107195086,-1.3122758831159445,0.09155413138023505
1499369125664,2.9602502479590385,-1.3122758831159445,0.15259021896690683
1499369125680,2.8381780727854675,-1.1291676203554744,0.09155413138023505
1499369125696,2.9602502479590385,-1.1291676203554744,0.03051804379333589
1499369125712,3.0212863355459376,-1.1902037079423735,0.15259021896690683
1499369125728,2.8992141603723667,-1.0070954451819034,0.2746623941404778
1499369125744,2.5940337224383256,-1.0681315327688026,0.3967345693140487
1499369125760,3.2654306858930795,-1.4343480582895154,0.3967345693140487
1499369125776,3.875791561760934,-1.1902037079423735,0.2746623941404778
1499369125792,3.5095750362402214,-1.0070954451819034,0.33569848172737693
1499369125808,3.0212863355459376,-0.9460593575952316,0.3967345693140487
1499369125824,2.8992141603723667,-0.5188067444876197,0.45777065690094787
1499369125840,2.8381780727854675,0.03051804379333589,0.5798428320745188
1499369125856,2.4719615472647547,0.5188067444876197,0.7019150072480898
1499369125872,2.166781109330941,0.7629510948347615,0.5798428320745188
1499369125888,2.3498893720911838,0.6408789196611906,0.3967345693140487
1499369125904,2.532997634851654,0.213626306553806,0.5188067444876197
1499369125920,2.7161058976118966,-0.09155413138023505,0.7629510948347615
1499369125936,2.8381780727854675,-0.03051804379333589,0.7019150072480898
1499369125952,2.8992141603723667,-0.33569848172737693,0.5188067444876197
1499369125968,2.9602502479590385,-0.7019150072480898,0.5798428320745188
1499369125984,3.3264667734797513,-1.1291676203554744,0.5798428320745188
1499369126000,3.570611123826893,-1.2512397955290453,0.5798428320745188
1499369126016,3.3875028610666504,-1.3122758831159445,0.5798428320745188
1499369126032,3.2043945983061803,-1.3733119707026162,0.45777065690094787
1499369126048,3.1433585107195086,-1.4343480582895154,0.3967345693140487
1499369126064,3.0823224231326094,-1.3733119707026162,0.2746623941404778
1499369126080,2.8992141603723667,-1.4953841458761872,0.213626306553806
1499369126096,2.8992141603723667,-1.4343480582895154,0.15259021896690683
1499369126112,2.7771419851987957,-1.3122758831159445,-0.03051804379333589
1499369126128,2.532997634851654,-1.1902037079423735,-0.15259021896690683
1499369126144,2.3498893720911838,-1.1902037079423735,-0.15259021896690683
1499369126160,2.166781109330941,-1.3122758831159445,0.03051804379333589
1499369126176,2.3498893720911838,-1.2512397955290453,0.03051804379333589
1499369126192,2.5940337224383256,-1.0681315327688026,-0.03051804379333589
1499369126208,2.655069810025225,-1.3122758831159445,0.03051804379333589
1499369126224,2.8381780727854675,-1.1291676203554744,0.09155413138023505
1499369126240,2.8381780727854675,-1.1291676203554744,0.15259021896690683
1499369126256,2.7771419851987957,-1.3733119707026162,0.03051804379333589
1499369126272,2.532997634851654,-1.1902037079423735,0.03051804379333589
1499369126288,2.227817196917613,-1.1291676203554744,0.213626306553806
1499369126304,2.288853284504512,-1.1902037079423735,0.213626306553806
1499369126320,2.4719615472647547,-1.1291676203554744,0.15259021896690683
1499369126336,2.3498893720911838,-1.2512397955290453,0.213626306553806
1499369126352,2.655069810025225,-1.6784924086366573,0.213626306553806
1499369126368,3.2043945983061803,-1.6174563210497581,0.213626306553806
1499369126384,3.0823224231326094,-1.3733119707026162,0.33569848172737693
1499369126400,3.0823224231326094,-1.3733119707026162,0.5188067444876197
1499369126416,3.3264667734797513,-1.3733119707026162,0.45777065690094787
1499369126432,3.3875028610666504,-1.0681315327688026,0.33569848172737693
1499369126448,3.0212863355459376,-1.0681315327688026,0.213626306553806
1499369126464,2.532997634851654,-1.0681315327688026,0.213626306553806
1499369126480,2.4719615472647547,-0.9460593575952316,0.09155413138023505
1499369126496,2.5940337224383256,-1.1902037079423735,0.15259021896690683
1499369126512,3.0212863355459376,-1.1291676203554744,0.15259021896690683
1499369126528,3.2654306858930795,-0.8239871824216607,0.15259021896690683
1499369126544,3.2654306858930795,-0.8239871824216607,0.09155413138023505
1499369126560,2.9602502479590385,-1.0070954451819034,0.15259021896690683
1499369126576,3.0823224231326094,-1.3122758831159445,0.09155413138023505
1499369126592,3.1433585107195086,-1.3122758831159445,0.09155413138023505
1499369126608,2.9602502479590385,-1.3733119707026162,0.15259021896690683
1499369126624,2.8381780727854675,-1.3122758831159445,0.09155413138023505
1499369126640,2.9602502479590385,-1.3733119707026162,0.03051804379333589
1499369126656,3.0823224231326094,-1.4343480582895154,0.03051804379333589
1499369126672,2.9602502479590385,-1.4953841458761872,0.03051804379333589
1499369126688,2.8381780727854675,-1.4343480582895154,0.03051804379333589
1499369126704,2.655069810025225,-1.3733119707026162,-0.03051804379333589
1499369126720,2.4719615472647547,-1.4343480582895154,-0.03051804379333589
1499369126736,2.288853284504512,-1.5564202334630863,0.03051804379333589
1499369126752,2.3498893720911838,-1.6174563210497581,0.03051804379333589
1499369126768,2.3498893720911838,-1.4953841458761872,-0.03051804379333589
1499369126784,2.227817196917613,-1.6174563210497581,-0.03051804379333589
1499369126800,2.410925459678083,-1.6784924086366573,-0.03051804379333589
1499369126816,2.7161058976118966,-1.4343480582895154,-0.03051804379333589
1499369126832,2.532997634851654,-1.4953841458761872,-0.03051804379333589
1499369126848,2.5940337224383256,-1.6174563210497581,-0.03051804379333589
1499369126864,2.3498893720911838,-1.4343480582895154,-0.09155413138023505
1499369126880,2.04470893415737,-1.4343480582895154,-0.15259021896690683
1499369126896,1.9226367589837992,-1.3733119707026162,-0.09155413138023505
1499369126912,1.983672846570471,-1.3122758831159445,-0.09155413138023505
1499369126928,2.105745021744042,-1.4953841458761872,0.03051804379333589
1499369126944,2.7161058976118966,-1.9226367589837992,0.09155413138023505
1499369126960,3.2654306858930795,-1.6784924086366573,-0.03051804379333589
1499369126976,2.8992141603723667,-1.6174563210497581,-0.03051804379333589
1499369126992,2.5940337224383256,-1.5564202334630863,0.03051804379333589
1499369127008,2.5940337224383256,-1.6174563210497581,0.03051804379333589
1499369127024,2.655069810025225,-1.739528496223329,-0.03051804379333589
1499369127040,2.410925459678083,-1.8005645838102282,-0.03051804379333589
1499369127056,2.166781109330941,-1.8005645838102282,-0.213626306553806
1499369127072,2.3498893720911838,-1.6174563210497581,-0.2746623941404778
1499369127088,2.410925459678083,-1.6784924086366573,-0.2746623941404778
1499369127104,2.4719615472647547,-1.2512397955290453,-0.15259021896690683
1499369127120,2.410925459678083,-1.0070954451819034,-0.03051804379333589
1499369127136,2.4719615472647547,-0.9460593575952316,-0.15259021896690683
1499369127152,2.410925459678083,-1.1291676203554744,-0.15259021896690683
1499369127168,2.4719615472647547,-1.2512397955290453,-0.09155413138023505
1499369127184,2.3498893720911838,-1.3122758831159445,-0.15259021896690683
1499369127200,2.227817196917613,-1.4343480582895154,-0.03051804379333589
1499369127216,2.3498893720911838,-1.3733119707026162,-0.03051804379333589
1499369127232,2.410925459678083,-1.3733119707026162,0.03051804379333589
1499369127248,2.288853284504512,-1.3122758831159445,0.09155413138023505
1499369127264,2.288853284504512,-1.3733119707026162,0.15259021896690683
1499369127280,2.3498893720911838,-1.3733119707026162,0.213626306553806
1499369127296,2.166781109330941,-1.2512397955290453,0.213626306553806
1499369127312,1.983672846570471,-1.3733119707026162,0.2746623941404778
1499369127328,2.105745021744042,-1.2512397955290453,0.33569848172737693
1499369127344,2.166781109330941,-1.3122758831159445,0.33569848172737693
1499369127360,1.983672846570471,-1.8005645838102282,0.33569848172737693
1499369127376,2.04470893415737,-1.739528496223329,0.2746623941404778
1499369127392,2.410925459678083,-1.1291676203554744,0.2746623941404778
1499369127408,2.166781109330941,-1.3122758831159445,0.213626306553806
1499369127424,1.9226367589837992,-1.2512397955290453,0.15259021896690683
1499369127441,1.6174563210497581,-1.0681315327688026,-0.03051804379333589
1499369127457,1.6784924086366573,-1.3122758831159445,-0.09155413138023505
1499369127473,1.8005645838102282,-1.1902037079423735,0.03051804379333589
1499369127489,1.5564202334630863,-0.8850232700083325,0.03051804379333589
1499369127505,1.5564202334630863,-0.9460593575952316,0.03051804379333589
1499369127520,1.5564202334630863,-1.3122758831159445,0.09155413138023505
1499369127536,1.9226367589837992,-1.4343480582895154,0.213626306553806
1499369127552,2.532997634851654,-1.5564202334630863,0.213626306553806
1499369127568,2.7771419851987957,-1.4953841458761872,0.2746623941404778
1499369127584,2.5940337224383256,-1.5564202334630863,0.15259021896690683
1499369127600,2.532997634851654,-1.4953841458761872,0.15259021896690683
1499369127617,2.4719615472647547,-1.3733119707026162,0.15259021896690683
1499369127633,2.410925459678083,-1.1291676203554744,0.09155413138023505
1499369127649,2.410925459678083,-0.8850232700083325,0.09155413138023505
1499369127665,2.5940337224383256,-0.8850232700083325,0.09155413138023505
1499369127681,2.655069810025225,-0.6408789196611906,0.09155413138023505
1499369127697,2.7771419851987957,-0.5798428320745188,-0.03051804379333589
1499369127713,2.7771419851987957,-0.7019150072480898,0.09155413138023505
1499369127729,2.7161058976118966,-0.9460593575952316,0.15259021896690683
1499369127745,2.7771419851987957,-1.0681315327688026,0.213626306553806
1499369127761,2.8992141603723667,-1.1902037079423735,0.2746623941404778
1499369127777,2.8992141603723667,-1.1902037079423735,0.15259021896690683
1499369127793,2.8381780727854675,-1.0681315327688026,0.15259021896690683
1499369127809,2.8992141603723667,-1.0681315327688026,0.213626306553806
1499369127825,2.7771419851987957,-1.1291676203554744,0.33569848172737693
1499369127841,2.8992141603723667,-1.1291676203554744,0.2746623941404778
1499369127857,2.8381780727854675,-1.2512397955290453,0.33569848172737693
1499369127873,2.7771419851987957,-1.2512397955290453,0.2746623941404778
1499369127889,2.7161058976118966,-1.3122758831159445,0.15259021896690683
1499369127905,2.8381780727854675,-1.3733119707026162,0.213626306553806
1499369127921,2.8992141603723667,-1.2512397955290453,0.15259021896690683
1499369127937,2.8992141603723667,-1.1291676203554744,0.15259021896690683
1499369127953,3.0823224231326094,-1.0070954451819034,0.213626306553806
1499369127969,3.1433585107195086,-0.9460593575952316,0.15259021896690683
1499369127985,3.0823224231326094,-1.0070954451819034,0.15259021896690683
1499369128001,3.0823224231326094,-1.1291676203554744,0.15259021896690683
1499369128017,2.7161058976118966,-1.1291676203554744,0.09155413138023505
1499369128033,2.7771419851987957,-1.1902037079423735,0.09155413138023505
1499369128049,3.1433585107195086,-1.2512397955290453,0.15259021896690683
1499369128065,2.8992141603723667,-1.0681315327688026,0.15259021896690683
1499369128081,2.8381780727854675,-1.1291676203554744,0.15259021896690683
1499369128097,3.0823224231326094,-1.4343480582895154,0.213626306553806
1499369128113,3.2043945983061803,-1.4343480582895154,0.2746623941404778
1499369128129,3.2043945983061803,-1.4953841458761872,0.2746623941404778
1499369128145,3.3264667734797513,-1.4343480582895154,0.2746623941404778
1499369128161,3.3264667734797513,-1.3733119707026162,0.2746623941404778
1499369128177,3.2043945983061803,-1.3122758831159445,0.33569848172737693
1499369128193,3.1433585107195086,-1.3122758831159445,0.2746623941404778
1499369128209,3.2654306858930795,-1.2512397955290453,0.2746623941404778
1499369128225,3.2654306858930795,-1.0070954451819034,0.15259021896690683
1499369128241,3.2654306858930795,-1.1291676203554744,0.213626306553806
1499369128257,3.570611123826893,-1.1902037079423735,0.15259021896690683
1499369128273,3.570611123826893,-1.0070954451819034,0.09155413138023505
1499369128289,3.4485389486533222,-0.9460593575952316,0.03051804379333589
1499369128305,3.2654306858930795,-1.0681315327688026,0.213626306553806
1499369128321,3.5095750362402214,-1.3122758831159445,0.2746623941404778
1499369128337,3.570611123826893,-1.3122758831159445,0.213626306553806
1499369128353,3.4485389486533222,-1.4343480582895154,0.15259021896690683
1499369128369,3.5095750362402214,-1.3122758831159445,-0.03051804379333589
1499369128385,3.3264667734797513,-1.1902037079423735,0.09155413138023505
1499369128401,3.2043945983061803,-1.1291676203554744,0.2746623941404778
1499369128417,3.2654306858930795,-1.1902037079423735,0.3967345693140487
1499369128433,3.2654306858930795,-1.1902037079423735,0.33569848172737693
1499369128449,3.2043945983061803,-1.1291676203554744,0.2746623941404778
1499369128465,3.0212863355459376,-1.0681315327688026,0.2746623941404778
1499369128481,3.1433585107195086,-1.1902037079423735,0.3967345693140487
1499369128497,3.3875028610666504,-1.2512397955290453,0.45777065690094787
1499369128513,3.5095750362402214,-1.1902037079423735,0.5188067444876197
1499369128529,3.5095750362402214,-1.1902037079423735,0.45777065690094787
1499369128545,3.6316472114137923,-1.1902037079423735,0.3967345693140487
1499369128561,3.7537193865873633,-1.0681315327688026,0.3967345693140487
1499369128577,3.814755474174035,-1.1291676203554744,0.3967345693140487
1499369128593,3.570611123826893,-1.3122758831159445,0.2746623941404778
1499369128609,3.1433585107195086,-1.1291676203554744,0.213626306553806
1499369128625,3.1433585107195086,-1.0681315327688026,0.15259021896690683
1499369128641,3.1433585107195086,-0.9460593575952316,0.2746623941404778
1499369128657,2.8992141603723667,-0.7629510948347615,0.33569848172737693
1499369128673,2.8381780727854675,-1.0681315327688026,0.33569848172737693
1499369128689,3.3264667734797513,-1.3122758831159445,0.2746623941404778
1499369128705,3.6316472114137923,-1.2512397955290453,0.213626306553806
1499369128721,3.570611123826893,-1.3122758831159445,0.2746623941404778
1499369128737,3.570611123826893,-1.3733119707026162,0.33569848172737693
1499369128753,3.814755474174035,-1.3122758831159445,0.33569848172737693
1499369128769,3.5095750362402214,-1.3733119707026162,0.2746623941404778
1499369128785,3.0823224231326094,-1.4953841458761872,0.2746623941404778
1499369128801,3.0212863355459376,-1.3733119707026162,0.213626306553806
1499369128817,3.0212863355459376,-1.2512397955290453,0.213626306553806
1499369128833,3.0212863355459376,-1.3733119707026162,0.213626306553806
1499369128849,3.3875028610666504,-1.1902037079423735,0.213626306553806
1499369128865,3.4485389486533222,-0.8239871824216607,0.213626306553806
1499369128881,3.2654306858930795,-0.7629510948347615,0.15259021896690683
1499369128897,3.0212863355459376,-0.9460593575952316,0.2746623941404778
1499369128913,3.3875028610666504,-1.0681315327688026,0.33569848172737693
1499369128929,3.570611123826893,-0.9460593575952316,0.33569848172737693
1499369128945,3.5095750362402214,-1.0070954451819034,0.3967345693140487
1499369128961,3.5095750362402214,-1.0070954451819034,0.2746623941404778
1499369128977,3.6316472114137923,-1.1291676203554744,0.213626306553806
1499369128993,3.4485389486533222,-1.1902037079423735,0.213626306553806
1499369129009,3.2043945983061803,-1.3122758831159445,0.2746623941404778
1499369129025,2.8381780727854675,-1.2512397955290453,0.213626306553806
1499369129041,2.655069810025225,-1.1902037079423735,0.213626306553806
1499369129057,2.5940337224383256,-1.0070954451819034,0.213626306553806
1499369129073,2.5940337224383256,-1.0681315327688026,0.2746623941404778
1499369129089,2.7771419851987957,-1.1291676203554744,0.2746623941404778
1499369129105,2.8992141603723667,-1.3122758831159445,0.213626306553806
1499369129121,2.9602502479590385,-1.3733119707026162,0.213626306553806
1499369129137,2.8381780727854675,-1.3733119707026162,0.15259021896690683
1499369129153,2.5940337224383256,-1.3733119707026162,0.15259021896690683
1499369129169,2.7161058976118966,-1.3122758831159445,0.213626306553806
1499369129185,3.0212863355459376,-1.3733119707026162,0.213626306553806
1499369129201,3.0823224231326094,-1.2512397955290453,0.213626306553806
1499369129217,3.0823224231326094,-1.1902037079423735,0.15259021896690683
1499369129233,3.0823224231326094,-1.1902037079423735,0.03051804379333589
1499369129249,2.9602502479590385,-1.1291676203554744,0.09155413138023505
1499369129265,2.5940337224383256,-1.3122758831159445,0.09155413138023505
1499369129281,3.0823224231326094,-1.6174563210497581,0.03051804379333589
1499369129297,3.4485389486533222,-1.4343480582895154,0.09155413138023505
1499369129313,3.3264667734797513,-1.2512397955290453,0.15259021896690683
1499369129329,3.4485389486533222,-1.3122758831159445,0.213626306553806
1499369129345,3.692683299000464,-1.3122758831159445,0.213626306553806
1499369129361,3.5095750362402214,-1.4343480582895154,0.15259021896690683
1499369129377,2.8381780727854675,-1.6784924086366573,0.03051804379333589
1499369129393,2.7161058976118966,-1.4953841458761872,-0.09155413138023505
1499369129409,2.5940337224383256,-1.4343480582895154,-0.09155413138023505
1499369129425,2.410925459678083,-1.4953841458761872,0.03051804379333589
1499369129441,2.7771419851987957,-1.4343480582895154,0.213626306553806
1499369129457,3.2654306858930795,-1.1902037079423735,0.2746623941404778
1499369129473,3.3875028610666504,-1.1291676203554744,0.213626306553806
1499369129489,3.2043945983061803,-1.3122758831159445,0.213626306553806
1499369129505,3.2043945983061803,-1.5564202334630863,0.09155413138023505
1499369129521,3.2043945983061803,-1.5564202334630863,0.03051804379333589
1499369129537,3.0823224231326094,-1.4953841458761872,0.03051804379333589
1499369129553,2.9602502479590385,-1.3733119707026162,0.03051804379333589
1499369129569,3.0212863355459376,-1.3122758831159445,0.09155413138023505
1499369129585,2.9602502479590385,-1.0681315327688026,0.15259021896690683
1499369129601,2.9602502479590385,-1.0070954451819034,0.213626306553806
1499369129617,2.8381780727854675,-1.0070954451819034,0.15259021896690683
1499369129633,2.655069810025225,-1.0681315327688026,0.15259021896690683
1499369129649,2.532997634851654,-1.0070954451819034,0.09155413138023505
1499369129665,2.5940337224383256,-1.0070954451819034,0.15259021896690683
1499369129681,2.5940337224383256,-1.1902037079423735,0.213626306553806
1499369129697,2.7161058976118966,-1.2512397955290453,0.213626306553806
1499369129713,2.7161058976118966,-1.2512397955290453,0.33569848172737693
1499369129729,2.7771419851987957,-1.4343480582895154,0.33569848172737693
1499369129745,3.0212863355459376,-1.3733119707026162,0.33569848172737693
1499369129761,2.9602502479590385,-1.1291676203554744,0.2746623941404778
1499369129777,2.9602502479590385,-1.2512397955290453,0.213626306553806
1499369129793,2.7161058976118966,-1.2512397955290453,0.15259021896690683
1499369129809,2.4719615472647547,-1.0681315327688026,0.09155413138023505
1499369129825,2.410925459678083,-1.1291676203554744,-0.03051804379333589
1499369129841,2.410925459678083,-1.0070954451819034,-0.03051804379333589
1499369129857,2.3498893720911838,-0.7629510948347615,0.15259021896690683
1499369129873,2.4719615472647547,-1.1902037079423735,0.213626306553806
1499369129889,3.2043945983061803,-1.3733119707026162,0.2746623941404778
1499369129905,3.5095750362402214,-1.1902037079423735,0.213626306553806
1499369129921,3.3264667734797513,-1.1291676203554744,0.2746623941404778
1499369129937,3.2043945983061803,-1.3122758831159445,0.2746623941404778
1499369129953,3.3264667734797513,-1.4343480582895154,0.2746623941404778
1499369129969,3.1433585107195086,-1.3733119707026162,0.213626306553806
1499369129985,2.8381780727854675,-1.4343480582895154,0.213626306553806
1499369130001,2.7161058976118966,-1.3122758831159445,0.09155413138023505
1499369130017,2.5940337224383256,-1.3122758831159445,0.15259021896690683
1499369130033,3.0212863355459376,-1.4343480582895154,0.213626306553806
1499369130049,3.3264667734797513,-1.1291676203554744,0.15259021896690683
1499369130065,3.2043945983061803,-0.8850232700083325,0.15259021896690683
1499369130081,2.7771419851987957,-0.8850232700083325,0.09155413138023505
1499369130097,2.7771419851987957,-1.0070954451819034,0.09155413138023505
1499369130113,2.9602502479590385,-1.1902037079423735,0.03051804379333589
1499369130129,2.8992141603723667,-1.1902037079423735,0.09155413138023505
1499369130145,2.8381780727854675,-1.0681315327688026,0.03051804379333589
1499369130161,2.8381780727854675,-1.1291676203554744,0.03051804379333589
1499369130177,2.7771419851987957,-1.1291676203554744,0.03051804379333589
1499369130193,2.655069810025225,-1.1291676203554744,0.09155413138023505
1499369130209,2.532997634851654,-1.1902037079423735,0.15259021896690683
1499369130225,2.5940337224383256,-1.3122758831159445,0.15259021896690683
1499369130241,2.655069810025225,-1.3733119707026162,0.213626306553806
1499369130257,2.5940337224383256,-1.3122758831159445,0.213626306553806
1499369130273,2.4719615472647547,-1.3733119707026162,0.213626306553806
1499369130289,2.4719615472647547,-1.4343480582895154,0.15259021896690683
1499369130305,2.3498893720911838,-1.3122758831159445,0.09155413138023505
1499369130321,2.04470893415737,-1.3122758831159445,0.09155413138023505
1499369130337,2.105745021744042,-1.3122758831159445,0.09155413138023505
1499369130353,2.3498893720911838,-1.0681315327688026,0.03051804379333589
1499369130369,2.288853284504512,-0.9460593575952316,0.03051804379333589
1499369130385,2.227817196917613,-1.0681315327688026,0.03051804379333589
1499369130401,2.166781109330941,-1.0681315327688026,-0.09155413138023505
1499369130417,1.9226367589837992,-1.3122758831159445,-0.09155413138023505
1499369130433,2.227817196917613,-1.1902037079423735,-0.15259021896690683
1499369130449,2.04470893415737,-1.1902037079423735,-0.09155413138023505
1499369130465,2.04470893415737,-1.2512397955290453,0.03051804379333589
1499369130481,2.532997634851654,-1.6174563210497581,0.15259021896690683
1499369130497,3.0212863355459376,-1.4343480582895154,0.15259021896690683
1499369130513,2.655069810025225,-1.3733119707026162,0.2746623941404778
1499369130529,2.532997634851654,-1.4343480582895154,0.33569848172737693
1499369130545,2.7161058976118966,-1.3733119707026162,0.2746623941404778
1499369130561,2.8381780727854675,-1.4953841458761872,0.213626306553806
1499369130577,2.288853284504512,-1.6174563210497581,0.09155413138023505
1499369130593,2.105745021744042,-1.6784924086366573,0.03051804379333589
1499369130609,2.04470893415737,-1.4953841458761872,-0.09155413138023505
1499369130625,2.166781109330941,-1.6784924086366573,-0.09155413138023505
1499369130641,2.532997634851654,-1.4953841458761872,-0.09155413138023505
1499369130657,2.288853284504512,-1.1902037079423735,-0.09155413138023505
1499369130673,2.105745021744042,-1.2512397955290453,-0.15259021896690683
1499369130689,2.04470893415737,-1.6174563210497581,-0.15259021896690683
1499369130705,2.166781109330941,-1.8005645838102282,-0.213626306553806
1499369130721,1.3733119707026162,-1.8005645838102282,-0.33569848172737693
1499369130737,0.9460593575952316,-2.227817196917613,-0.3967345693140487
1499369130753,1.5564202334630863,-2.227817196917613,-0.45777065690094787
1499369130769,2.105745021744042,-1.8616006713969,-0.3967345693140487
1499369130785,2.166781109330941,-2.166781109330941,-0.33569848172737693
1499369130801,2.3498893720911838,-2.166781109330941,-0.09155413138023505
1499369130817,2.655069810025225,-1.983672846570471,-0.15259021896690683
1499369130833,2.532997634851654,-1.9226367589837992,-0.2746623941404778
1499369130849,1.6174563210497581,-1.739528496223329,-0.3967345693140487
1499369130865,1.3733119707026162,-1.8005645838102282,-0.3967345693140487
1499369130881,1.4953841458761872,-1.8005645838102282,-0.2746623941404778
1499369130897,1.5564202334630863,-1.6784924086366573,-0.2746623941404778
1499369130913,1.739528496223329,-1.4953841458761872,-0.2746623941404778
1499369130929,1.4953841458761872,-0.8850232700083325,-0.33569848172737693
1499369130945,1.6784924086366573,0.5798428320745188,-0.45777065690094787
1499369130961,1.4953841458761872,1.2512397955290453,-0.6408789196611906
1499369130977,2.288853284504512,1.0681315327688026,-0.7629510948347615
1499369130993,2.8992141603723667,1.6784924086366573,-0.8850232700083325
1499369131009,2.04470893415737,1.8005645838102282,-1.1902037079423735
1499369131025,1.739528496223329,1.0070954451819034,-1.4953841458761872
1499369131041,2.9602502479590385,1.8005645838102282,-1.6784924086366573
1499369131057,5.0354772259097444,4.852368963149502,-1.739528496223329
1499369131073,2.4719615472647547,8.087281605249018,-2.105745021744042
1499369131089,-0.03051804379333589,8.270389868009488,-1.983672846570471
1499369131105,2.3498893720911838,8.45349813076973,-1.3733119707026162
1499369131121,3.692683299000464,6.744487678339738,-1.2512397955290453
1499369131137,3.570611123826893,6.622415503166167,-2.166781109330941
1499369131153,2.105745021744042,6.256198977645454,-2.7161058976118966
1499369131169,2.8381780727854675,2.3498893720911838,-2.105745021744042
1499369131185,6.683451590753066,2.655069810025225,-1.4953841458761872
1499369131201,8.575570305943302,4.119935912108076,-2.288853284504512
1499369131217,5.279621576256886,4.058899824521177,-3.0823224231326094
1499369131233,3.4485389486533222,3.2654306858930795,-2.7161058976118966
1499369131249,4.058899824521177,2.655069810025225,-1.739528496223329
1499369131265,3.936827649347606,0.5188067444876197,-1.2512397955290453
1499369131281,5.462729839017356,-0.6408789196611906,-1.0070954451819034
1499369131297,4.547188525215461,-3.997863736934505,-0.213626306553806
1499369131313,5.096513313496644,-5.279621576256886,0.3967345693140487
1499369131329,7.782101167315204,-5.462729839017356,0.213626306553806
1499369131345,7.782101167315204,-6.012054627298312,-0.2746623941404778
1499369131361,7.660028992141633,-5.096513313496644,-0.8850232700083325
1499369131377,6.9886320286868795,-4.180971999694748,-1.6174563210497581
1499369131393,5.889982452124741,-3.5095750362402214,-2.04470893415737
1499369131409,5.0354772259097444,-3.0823224231326094,-1.9226367589837992
1499369131425,4.60822461280236,-3.0212863355459376,-1.6784924086366573
1499369131441,4.60822461280236,-2.4719615472647547,-1.8005645838102282
1499369131457,4.303044174868319,-1.8616006713969,-2.105745021744042
1499369131473,3.7537193865873633,-1.1902037079423735,-2.166781109330941
1499369131489,3.3264667734797513,-1.3733119707026162,-1.9226367589837992
1499369131505,4.42511635004189,-1.2512397955290453,-1.4953841458761872
1499369131521,4.60822461280236,-0.45777065690094787,-1.3122758831159445
1499369131537,3.2654306858930795,-0.5798428320745188,-1.3733119707026162
1499369131553,2.5940337224383256,-0.09155413138023505,-1.1902037079423735
1499369131569,1.739528496223329,0.15259021896690683,-1.0070954451819034
1499369131585,0.7019150072480898,0.3967345693140487,-0.7019150072480898
1499369131601,0.33569848172737693,0.7019150072480898,-0.2746623941404778
1499369131617,1.3733119707026162,0.9460593575952316,0.3967345693140487
1499369131633,2.105745021744042,0.09155413138023505,1.1902037079423735
1499369131649,2.655069810025225,-0.8850232700083325,1.739528496223329
1499369131665,3.875791561760934,-1.0681315327688026,1.5564202334630863
1499369131681,3.875791561760934,-1.1291676203554744,1.3122758831159445
1499369131697,3.570611123826893,-1.3122758831159445,1.3122758831159445
1499369131713,3.3264667734797513,-1.4953841458761872,1.5564202334630863
1499369131729,3.875791561760934,-1.9226367589837992,1.8616006713969
1499369131745,3.2043945983061803,-2.8992141603723667,2.227817196917613
1499369131761,2.655069810025225,-3.6316472114137923,2.288853284504512
1499369131777,2.410925459678083,-3.936827649347606,2.04470893415737
1499369131793,2.410925459678083,-3.997863736934505,1.6174563210497581
1499369131809,2.3498893720911838,-4.242008087281647,1.3122758831159445
1499369131825,2.8381780727854675,-3.936827649347606,1.2512397955290453
1499369131841,3.875791561760934,-2.8992141603723667,1.4343480582895154
1499369131857,4.119935912108076,-2.655069810025225,1.739528496223329
1499369131873,3.875791561760934,-2.655069810025225,1.8616006713969
1499369131889,4.058899824521177,-2.410925459678083,1.6784924086366573
1499369131905,3.936827649347606,-2.288853284504512,1.4343480582895154
1499369131921,3.997863736934505,-2.105745021744042,1.1291676203554744
1499369131937,3.997863736934505,-1.8616006713969,1.0681315327688026
1499369131953,4.364080262455218,-0.03051804379333589,1.1902037079423735
1499369131969,3.5095750362402214,0.03051804379333589,1.1902037079423735
1499369131985,2.4719615472647547,-0.5188067444876197,1.0070954451819034
1499369132001,3.2654306858930795,-0.09155413138023505,0.8239871824216607
1499369132017,3.5095750362402214,-0.7019150072480898,0.6408789196611906
1499369132033,2.8381780727854675,-1.2512397955290453,0.7019150072480898
1499369132049,2.5940337224383256,-1.3733119707026162,1.0070954451819034
1499369132065,2.7771419851987957,-1.5564202334630863,1.2512397955290453
1499369132081,2.166781109330941,-2.227817196917613,1.2512397955290453
1499369132097,1.983672846570471,-2.3498893720911838,1.0070954451819034
1499369132113,3.3264667734797513,-1.8616006713969,0.8850232700083325
1499369132129,2.8381780727854675,-2.655069810025225,0.5798428320745188
1499369132145,2.410925459678083,-3.0823224231326094,0.2746623941404778
1499369132161,3.3875028610666504,-2.105745021744042,0.15259021896690683
1499369132177,3.570611123826893,-1.8005645838102282,0.03051804379333589
1499369132193,3.3875028610666504,-1.983672846570471,-0.09155413138023505
1499369132209,3.3875028610666504,-1.739528496223329,-0.09155413138023505
1499369132225,3.692683299000464,-2.410925459678083,-0.09155413138023505
1499369132241,4.974441138323073,-2.532997634851654,-0.09155413138023505
1499369132257,5.0354772259097444,-2.532997634851654,-0.2746623941404778
1499369132273,4.303044174868319,-2.9602502479590385,-0.33569848172737693
1499369132289,4.180971999694748,-3.2043945983061803,-0.213626306553806
1499369132305,4.119935912108076,-3.5095750362402214,-0.03051804379333589
1499369132321,3.6316472114137923,-3.7537193865873633,0.03051804379333589
1499369132337,2.5940337224383256,-3.814755474174035,-0.03051804379333589
1499369132353,1.9226367589837992,-3.7537193865873633,-0.2746623941404778
1499369132369,1.983672846570471,-3.570611123826893,-0.33569848172737693
1499369132385,2.105745021744042,-3.5095750362402214,-0.09155413138023505
1499369132401,2.4719615472647547,-3.6316472114137923,-0.03051804379333589
1499369132417,3.4485389486533222,-3.875791561760934,-0.09155413138023505
1499369132433,3.570611123826893,-4.180971999694748,-0.213626306553806
1499369132449,3.3264667734797513,-3.997863736934505,-0.3967345693140487
1499369132465,3.570611123826893,-3.3875028610666504,-0.45777065690094787
1499369132481,4.303044174868319,-3.2043945983061803,-0.33569848172737693
1499369132497,5.157549401083315,-2.7771419851987957,-0.213626306553806
1499369132513,6.317235065232353,-0.8850232700083325,-0.15259021896690683
1499369132529,4.9134050507361735,-1.1291676203554744,-0.33569848172737693
1499369132545,4.852368963149502,-0.8850232700083325,-0.3967345693140487
1499369132561,5.462729839017356,-0.33569848172737693,-0.33569848172737693
1499369132577,4.974441138323073,-0.9460593575952316,-0.33569848172737693
1499369132593,4.669260700389032,-1.3122758831159445,-0.5798428320745188
1499369132609,5.096513313496644,-1.0681315327688026,-0.6408789196611906
1499369132625,4.669260700389032,-1.3733119707026162,-0.7019150072480898
1499369132641,4.486152437628789,-1.4953841458761872,-0.6408789196611906
1499369132657,4.42511635004189,-1.2512397955290453,-0.7019150072480898
1499369132673,4.303044174868319,-1.4953841458761872,-0.5798428320745188
1499369132689,4.730296787975931,-1.5564202334630863,-0.2746623941404778
1499369132705,5.0354772259097444,-1.6174563210497581,-0.15259021896690683
1499369132721,5.096513313496644,-1.8616006713969,-0.33569848172737693
1499369132737,4.974441138323073,-1.8616006713969,-0.5188067444876197
1499369132753,4.669260700389032,-1.4953841458761872,-0.5798428320745188
1499369132769,4.9134050507361735,-0.15259021896690683,-0.5798428320745188
1499369132785,3.7537193865873633,0.213626306553806,-0.5188067444876197
1499369132801,3.0212863355459376,-0.5798428320745188,-0.33569848172737693
1499369132817,3.0823224231326094,-0.3967345693140487,-0.09155413138023505
1499369132833,3.1433585107195086,-0.5798428320745188,-0.03051804379333589
1499369132849,2.532997634851654,-1.3733119707026162,-0.03051804379333589
1499369132865,3.0212863355459376,-1.6784924086366573,-0.15259021896690683
1499369132881,2.5940337224383256,-1.1291676203554744,-0.213626306553806
1499369132897,1.739528496223329,-1.0681315327688026,-0.213626306553806
1499369132913,1.1291676203554744,-1.3122758831159445,-0.15259021896690683
1499369132929,1.4953841458761872,-0.45777065690094787,-0.09155413138023505
1499369132945,1.739528496223329,-0.3967345693140487,0.09155413138023505
1499369132961,1.6784924086366573,-0.7629510948347615,0.2746623941404778
1499369132977,1.8005645838102282,-0.09155413138023505,0.5798428320745188
1499369132993,1.9226367589837992,-0.03051804379333589,0.8850232700083325
1499369133009,1.8005645838102282,-0.5798428320745188,1.0070954451819034
1499369133025,1.983672846570471,-0.8850232700083325,0.8850232700083325
1499369133041,1.1902037079423735,-1.0681315327688026,0.7629510948347615
1499369133057,0.6408789196611906,-0.8239871824216607,0.8850232700083325
1499369133073,0.6408789196611906,-1.0070954451819034,0.9460593575952316
1499369133089,1.0070954451819034,-1.3122758831159445,0.8239871824216607
1499369133105,1.2512397955290453,-0.9460593575952316,0.7019150072480898
1499369133121,0.33569848172737693,-1.2512397955290453,0.8850232700083325
1499369133137,-0.2746623941404778,-1.9226367589837992,1.1902037079423735
1499369133153,0.5188067444876197,-1.739528496223329,1.2512397955290453
1499369133169,0.7629510948347615,-1.8616006713969,1.3733119707026162
1499369133185,0.213626306553806,-2.532997634851654,1.3122758831159445
1499369133201,0.8239871824216607,-2.3498893720911838,1.4953841458761872
1499369133217,0.9460593575952316,-2.532997634851654,1.8616006713969
1499369133233,1.1291676203554744,-3.1433585107195086,1.983672846570471
1499369133249,1.0070954451819034,-2.9602502479590385,1.8005645838102282
1499369133265,-0.03051804379333589,-2.9602502479590385,1.6174563210497581
1499369133281,-0.7629510948347615,-2.8381780727854675,1.8616006713969
1499369133297,-0.8850232700083325,-3.0212863355459376,1.8005645838102282
1499369133313,-0.5798428320745188,-3.692683299000464,1.739528496223329
1499369133329,0.15259021896690683,-4.119935912108076,1.739528496223329
1499369133345,-0.5798428320745188,-3.3875028610666504,1.6784924086366573
1499369133361,-1.4953841458761872,-2.7771419851987957,1.6784924086366573
1499369133377,-2.7771419851987957,-3.3875028610666504,1.6174563210497581
1499369133393,-2.7771419851987957,-2.8992141603723667,1.6174563210497581
1499369133409,-4.058899824521177,-2.4719615472647547,1.8616006713969
1499369133425,-5.95101853971164,-2.8381780727854675,2.04470893415737
1499369133441,-6.439307240405924,-2.532997634851654,2.166781109330941
1499369133457,-7.2938124666209205,-1.983672846570471,2.288853284504512
1499369133473,-8.880750743877343,-1.3122758831159445,2.3498893720911838
1499369133489,-9.185931181811156,-1.739528496223329,1.8616006713969
1499369133505,-7.782101167315204,-1.6174563210497581,1.5564202334630863
1499369133521,-6.317235065232353,-0.7629510948347615,1.739528496223329
1499369133537,-5.401693751430457,0.7019150072480898,1.5564202334630863
1499369133553,-4.730296787975931,2.166781109330941,0.7629510948347615
1499369133569,-4.486152437628789,3.1433585107195086,0.15259021896690683
1499369133585,-5.157549401083315,3.2654306858930795,0.33569848172737693
1499369133601,-5.401693751430457,2.7161058976118966,0.9460593575952316
1499369133617,-5.584802014190927,2.105745021744042,1.3733119707026162
1499369133633,-5.157549401083315,1.4953841458761872,1.6784924086366573
1499369133649,-4.791332875562603,0.5188067444876197,1.6784924086366573
1499369133665,-4.058899824521177,0.09155413138023505,1.4953841458761872
1499369133681,-3.0823224231326094,0.213626306553806,1.3122758831159445
1499369133697,-2.04470893415737,0.2746623941404778,1.1291676203554744
1499369133713,-1.6174563210497581,0.7019150072480898,1.0070954451819034
1499369133729,-1.6784924086366573,0.7629510948347615,1.0681315327688026
1499369133745,-1.4343480582895154,0.6408789196611906,1.4343480582895154
1499369133761,-0.7019150072480898,0.7019150072480898,1.8005645838102282
1499369133777,0.15259021896690683,0.7019150072480898,2.105745021744042
1499369133793,0.6408789196611906,0.5798428320745188,2.410925459678083
1499369133809,1.1902037079423735,0.2746623941404778,2.7161058976118966
1499369133825,2.3498893720911838,0.213626306553806,2.5940337224383256
1499369133841,4.119935912108076,0.09155413138023505,2.288853284504512
1499369133857,5.828946364538069,-0.15259021896690683,1.983672846570471
1499369133873,6.256198977645454,-0.45777065690094787,1.739528496223329
1499369133889,6.317235065232353,-0.8850232700083325,1.6784924086366573
1499369133905,6.622415503166167,-0.8239871824216607,1.739528496223329
1499369133921,6.439307240405924,-0.7019150072480898,1.739528496223329
1499369133937,6.317235065232353,-0.7629510948347615,1.983672846570471
1499369133953,7.354848554207592,-0.9460593575952316,2.3498893720911838
1499369133969,8.33142595559616,-0.9460593575952316,2.410925459678083
1499369133985,8.33142595559616,-1.2512397955290453,2.288853284504512
1499369134001,8.026245517662346,-1.5564202334630863,1.9226367589837992
1499369134017,7.843137254901876,-1.8616006713969,1.6784924086366573
1499369134033,7.049668116273779,-2.166781109330941,1.3733119707026162
1499369134049,5.95101853971164,-2.3498893720911838,1.2512397955290453
1499369134065,5.889982452124741,-2.288853284504512,1.1291676203554744
1499369134081,5.95101853971164,-2.288853284504512,1.1291676203554744
1499369134097,5.706874189364498,-2.288853284504512,1.0681315327688026
1499369134113,6.134126802471883,-2.04470893415737,1.0070954451819034
1499369134129,6.012054627298312,-1.8616006713969,0.8850232700083325
1499369134145,5.157549401083315,-1.6784924086366573,0.6408789196611906
1499369134161,5.096513313496644,-1.6784924086366573,0.6408789196611906
1499369134177,5.523765926604028,-1.6174563210497581,0.7019150072480898
1499369134193,5.828946364538069,-1.4343480582895154,0.7629510948347615
1499369134209,5.523765926604028,-1.3733119707026162,0.6408789196611906
1499369134225,5.401693751430457,-1.5564202334630863,0.5188067444876197
1499369134241,5.3406576638437855,-1.6174563210497581,0.45777065690094787
1499369134257,4.974441138323073,-1.8005645838102282,0.45777065690094787
1499369134273,4.364080262455218,-1.6784924086366573,0.5798428320745188
1499369134289,4.058899824521177,-1.8616006713969,0.5188067444876197
1499369134305,4.180971999694748,-1.8616006713969,0.5798428320745188
1499369134321,4.303044174868319,-1.739528496223329,0.6408789196611906
1499369134337,4.242008087281647,-1.739528496223329,0.5798428320745188
1499369134353,4.180971999694748,-1.8616006713969,0.5188067444876197
1499369134369,3.936827649347606,-1.9226367589837992,0.45777065690094787
1499369134385,3.875791561760934,-1.6784924086366573,0.3967345693140487
1499369134401,3.692683299000464,-1.6174563210497581,0.3967345693140487
1499369134417,3.0823224231326094,-1.6174563210497581,0.45777065690094787
1499369134433,2.7771419851987957,-1.4343480582895154,0.45777065690094787
1499369134449,2.8992141603723667,-1.3122758831159445,0.45777065690094787
1499369134465,2.9602502479590385,-1.0070954451819034,0.3967345693140487
1499369134481,2.7771419851987957,-1.0070954451819034,0.3967345693140487
1499369134497,3.0212863355459376,-1.5564202334630863,0.3967345693140487
1499369134513,3.875791561760934,-1.4953841458761872,0.3967345693140487
1499369134529,4.242008087281647,-1.4343480582895154,0.3967345693140487
1499369134545,3.692683299000464,-1.4953841458761872,0.3967345693140487
1499369134561,3.7537193865873633,-1.6784924086366573,0.2746623941404778
1499369134577,3.875791561760934,-1.5564202334630863,0.33569848172737693
1499369134593,3.3264667734797513,-1.8005645838102282,0.213626306553806
1499369134609,2.7161058976118966,-1.9226367589837992,0.213626306553806
1499369134625,2.5940337224383256,-1.8005645838102282,0.09155413138023505
1499369134641,2.7161058976118966,-1.983672846570471,0.15259021896690683
1499369134657,2.8992141603723667,-2.410925459678083,0.15259021896690683
1499369134673,3.936827649347606,-2.04470893415737,0.03051804379333589
1499369134689,4.242008087281647,-1.6784924086366573,-0.15259021896690683
1499369134705,3.570611123826893,-1.9226367589837992,-0.2746623941404778
1499369134721,2.227817196917613,-2.7161058976118966,-0.2746623941404778
1499369134737,2.227817196917613,-2.655069810025225,-0.2746623941404778
1499369134753,2.7161058976118966,-2.410925459678083,-0.2746623941404778
1499369134769,2.288853284504512,-2.5940337224383256,-0.2746623941404778
1499369134785,2.410925459678083,-2.166781109330941,-0.2746623941404778
1499369134801,3.1433585107195086,-1.739528496223329,-0.45777065690094787
1499369134817,3.2654306858930795,-1.739528496223329,-0.3967345693140487
1499369134833,3.3875028610666504,-1.6784924086366573,-0.15259021896690683
1499369134849,3.570611123826893,-1.4343480582895154,0.09155413138023505
1499369134865,3.3264667734797513,-1.3733119707026162,0.15259021896690683
1499369134881,2.8381780727854675,-1.2512397955290453,0.33569848172737693
1499369134897,2.7771419851987957,-1.2512397955290453,0.5188067444876197
1499369134913,2.8992141603723667,-1.3733119707026162,0.45777065690094787
1499369134929,3.1433585107195086,-1.5564202334630863,0.45777065690094787
1499369134945,3.3875028610666504,-1.5564202334630863,0.5188067444876197
1499369134961,3.936827649347606,-1.3733119707026162,0.6408789196611906
1499369134977,4.119935912108076,-1.1902037079423735,0.45777065690094787
1499369134993,3.0823224231326094,-0.8850232700083325,0.3967345693140487
1499369135009,2.288853284504512,-0.7629510948347615,0.3967345693140487
1499369135025,2.532997634851654,-0.5188067444876197,0.3967345693140487
1499369135041,2.532997634851654,-0.45777065690094787,0.3967345693140487
1499369135057,2.5940337224383256,-0.9460593575952316,0.45777065690094787
1499369135073,3.4485389486533222,-1.0070954451819034,0.33569848172737693
1499369135089,3.875791561760934,-0.6408789196611906,0.15259021896690683
1499369135105,3.570611123826893,-0.8239871824216607,0.09155413138023505
1499369135121,3.570611123826893,-0.8850232700083325,0.2746623941404778
1499369135137,3.570611123826893,-1.0070954451819034,0.2746623941404778
1499369135153,2.8992141603723667,-1.3733119707026162,0.213626306553806
1499369135169,2.655069810025225,-1.4343480582895154,0.2746623941404778
1499369135185,3.1433585107195086,-1.3122758831159445,0.213626306553806
1499369135201,3.2043945983061803,-1.2512397955290453,0.15259021896690683
1499369135217,3.3264667734797513,-1.4953841458761872,0.2746623941404778
1499369135233,3.692683299000464,-1.5564202334630863,0.213626306553806
1499369135249,3.692683299000464,-1.2512397955290453,0.09155413138023505
1499369135265,3.4485389486533222,-1.1902037079423735,0.09155413138023505
1499369135281,3.0212863355459376,-1.2512397955290453,0.09155413138023505
1499369135297,3.1433585107195086,-1.4343480582895154,0.09155413138023505
1499369135313,3.2043945983061803,-1.3733119707026162,0.15259021896690683
1499369135329,3.0212863355459376,-1.4953841458761872,0.09155413138023505
1499369135345,2.8381780727854675,-1.3733119707026162,0.03051804379333589
1499369135361,2.8381780727854675,-1.3733119707026162,-0.03051804379333589
1499369135377,2.7161058976118966,-1.4343480582895154,-0.03051804379333589
1499369135393,2.4719615472647547,-1.739528496223329,0.09155413138023505
1499369135409,2.288853284504512,-1.8616006713969,0.09155413138023505
1499369135425,2.227817196917613,-1.8005645838102282,0.15259021896690683
1499369135441,2.227817196917613,-1.739528496223329,0.15259021896690683
1499369135457,2.227817196917613,-1.6174563210497581,0.15259021896690683
1499369135473,2.288853284504512,-1.4953841458761872,0.213626306553806
1499369135489,2.4719615472647547,-1.5564202334630863,0.2746623941404778
1499369135505,2.8992141603723667,-1.6174563210497581,0.2746623941404778
1499369135521,3.0212863355459376,-1.4953841458761872,0.2746623941404778
1499369135537,3.0212863355459376,-1.4953841458761872,0.2746623941404778
1499369135553,2.9602502479590385,-1.4953841458761872,0.09155413138023505
1499369135569,2.5940337224383256,-1.3122758831159445,0.03051804379333589
1499369135585,2.410925459678083,-1.1902037079423735,0.09155413138023505
1499369135601,2.655069810025225,-1.1291676203554744,0.09155413138023505
1499369135617,2.7161058976118966,-1.1291676203554744,0.09155413138023505
1499369135633,2.227817196917613,-1.6174563210497581,0.15259021896690683
1499369135649,2.7771419851987957,-1.8616006713969,0.15259021896690683
1499369135665,3.692683299000464,-1.4953841458761872,0.15259021896690683
1499369135681,3.997863736934505,-1.3122758831159445,0.33569848172737693
1499369135697,3.936827649347606,-1.1902037079423735,0.3967345693140487
1499369135713,3.4485389486533222,-1.3733119707026162,0.15259021896690683
1499369135729,2.7161058976118966,-1.6174563210497581,-0.03051804379333589
1499369135745,2.288853284504512,-1.5564202334630863,-0.15259021896690683
1499369135761,2.288853284504512,-1.3122758831159445,-0.03051804379333589
1499369135777,2.655069810025225,-1.1291676203554744,0.03051804379333589
1499369135793,3.0823224231326094,-1.3122758831159445,0.213626306553806
1499369135809,3.7537193865873633,-1.3122758831159445,0.2746623941404778
1499369135825,4.119935912108076,-0.8239871824216607,0.33569848172737693
1499369135841,3.7537193865873633,-0.7629510948347615,0.213626306553806
1499369135857,3.2654306858930795,-0.8239871824216607,0.15259021896690683
1499369135873,3.1433585107195086,-0.9460593575952316,0.15259021896690683
1499369135889,2.7771419851987957,-0.9460593575952316,0.09155413138023505
1499369135905,2.7161058976118966,-1.1902037079423735,0.09155413138023505
1499369135921,2.4719615472647547,-0.9460593575952316,0.09155413138023505
1499369135937,2.227817196917613,-1.1291676203554744,0.09155413138023505
1499369135953,2.8381780727854675,-0.9460593575952316,0.213626306553806
1499369135969,3.5095750362402214,-0.6408789196611906,0.3967345693140487
1499369135985,3.4485389486533222,-0.45777065690094787,0.2746623941404778
1499369136001,2.655069810025225,-0.5798428320745188,0.15259021896690683
1499369136017,1.983672846570471,-0.8239871824216607,0.2746623941404778
1499369136033,1.983672846570471,-1.1291676203554744,0.2746623941404778
1499369136049,2.532997634851654,-0.8239871824216607,0.2746623941404778
1499369136065,2.655069810025225,-0.5188067444876197,0.2746623941404778
1499369136081,2.532997634851654,-0.45777065690094787,0.33569848172737693
1499369136097,2.4719615472647547,-0.213626306553806,0.45777065690094787
1499369136113,2.7161058976118966,0.2746623941404778,0.5798428320745188
1499369136129,2.8381780727854675,0.213626306553806,0.7019150072480898
1499369136145,2.4719615472647547,0.09155413138023505,0.6408789196611906
1499369136161,1.8005645838102282,-0.09155413138023505,0.3967345693140487
1499369136177,1.6174563210497581,-0.2746623941404778,0.213626306553806
1499369136193,1.983672846570471,-0.5188067444876197,0.213626306553806
1499369136209,2.3498893720911838,-0.7019150072480898,0.2746623941404778
1499369136225,2.7771419851987957,-1.2512397955290453,0.3967345693140487
1499369136241,3.4485389486533222,-1.2512397955290453,0.45777065690094787
1499369136257,3.0212863355459376,-1.1291676203554744,0.33569848172737693
1499369136273,2.4719615472647547,-1.1902037079423735,0.3967345693140487
1499369136289,2.655069810025225,-1.1902037079423735,0.45777065690094787
1499369136305,2.655069810025225,-1.3122758831159445,0.2746623941404778
1499369136321,2.166781109330941,-1.4343480582895154,0.15259021896690683
1499369136337,1.983672846570471,-1.6174563210497581,0.03051804379333589
1499369136353,2.166781109330941,-1.4343480582895154,-0.03051804379333589
1499369136369,2.166781109330941,-1.2512397955290453,-0.09155413138023505
1499369136385,2.3498893720911838,-1.3733119707026162,-0.03051804379333589
1499369136401,2.7771419851987957,-1.0681315327688026,-0.03051804379333589
1499369136417,2.7771419851987957,-0.8850232700083325,-0.09155413138023505
1499369136433,2.3498893720911838,-0.9460593575952316,-0.09155413138023505
1499369136449,2.105745021744042,-1.3122758831159445,-0.09155413138023505
1499369136465,2.3498893720911838,-1.2512397955290453,-0.15259021896690683
1499369136481,2.410925459678083,-1.3733119707026162,-0.15259021896690683
1499369136497,2.4719615472647547,-1.6174563210497581,-0.15259021896690683
1499369136513,2.410925459678083,-1.6784924086366573,-0.213626306553806
1499369136529,2.410925459678083,-1.6784924086366573,-0.213626306553806
1499369136545,2.3498893720911838,-1.739528496223329,-0.09155413138023505
1499369136561,2.532997634851654,-1.8005645838102282,0.03051804379333589
1499369136577,2.532997634851654,-1.6174563210497581,-0.09155413138023505
1499369136593,2.288853284504512,-1.5564202334630863,-0.03051804379333589
1499369136609,2.166781109330941,-1.6174563210497581,-0.09155413138023505
1499369136625,2.166781109330941,-1.6174563210497581,-0.03051804379333589
1499369136641,1.983672846570471,-1.739528496223329,-0.03051804379333589
1499369136657,1.9226367589837992,-1.8616006713969,-0.03051804379333589
1499369136673,1.739528496223329,-1.9226367589837992,-0.09155413138023505
1499369136689,1.9226367589837992,-1.9226367589837992,-0.09155413138023505
1499369136705,2.105745021744042,-1.8616006713969,-0.03051804379333589
1499369136721,1.9226367589837992,-1.8005645838102282,-0.09155413138023505
1499369136737,1.4953841458761872,-1.6174563210497581,-0.213626306553806
1499369136753,1.739528496223329,-1.6174563210497581,-0.213626306553806
1499369136769,2.04470893415737,-1.3733119707026162,-0.15259021896690683
1499369136785,2.04470893415737,-1.0681315327688026,-0.15259021896690683
1499369136801,2.04470893415737,-1.3733119707026162,-0.03051804379333589
1499369136817,2.3498893720911838,-1.6784924086366573,0.09155413138023505
1499369136833,2.5940337224383256,-1.6784924086366573,0.2746623941404778
1499369136849,2.8381780727854675,-1.739528496223329,0.33569848172737693
1499369136865,3.1433585107195086,-1.8616006713969,0.3967345693140487
1499369136881,3.2043945983061803,-2.04470893415737,0.3967345693140487
1499369136897,3.2043945983061803,-2.04470893415737,0.33569848172737693
1499369136913,3.2043945983061803,-1.9226367589837992,0.33569848172737693
1499369136929,3.1433585107195086,-1.6784924086366573,0.2746623941404778
1499369136945,3.0823224231326094,-1.3122758831159445,0.2746623941404778
1499369136961,3.3264667734797513,-1.3122758831159445,0.33569848172737693
1499369136977,3.875791561760934,-1.1291676203554744,0.2746623941404778
1499369136993,3.875791561760934,-0.8850232700083325,0.213626306553806
1499369137009,3.5095750362402214,-0.9460593575952316,0.15259021896690683
1499369137025,3.4485389486533222,-1.0681315327688026,0.2746623941404778
1499369137041,3.5095750362402214,-1.1291676203554744,0.2746623941404778
1499369137057,3.692683299000464,-1.3122758831159445,0.2746623941404778
1499369137073,3.692683299000464,-1.2512397955290453,0.2746623941404778
1499369137089,3.936827649347606,-1.1291676203554744,0.2746623941404778
1499369137105,3.692683299000464,-1.1291676203554744,0.213626306553806
1499369137121,3.2654306858930795,-1.1291676203554744,0.2746623941404778
1499369137137,3.2043945983061803,-1.1902037079423735,0.3967345693140487
1499369137153,3.2043945983061803,-1.1902037079423735,0.33569848172737693
1499369137169,3.1433585107195086,-1.2512397955290453,0.2746623941404778
1499369137185,3.1433585107195086,-1.1902037079423735,0.3967345693140487
1499369137201,2.9602502479590385,-1.2512397955290453,0.45777065690094787
1499369137217,3.0212863355459376,-1.3122758831159445,0.45777065690094787
1499369137233,3.0212863355459376,-1.3122758831159445,0.3967345693140487
1499369137249,3.0212863355459376,-1.3733119707026162,0.3967345693140487
1499369137265,3.2043945983061803,-1.3122758831159445,0.3967345693140487
1499369137281,3.3264667734797513,-1.1291676203554744,0.33569848172737693
1499369137297,3.4485389486533222,-1.1291676203554744,0.2746623941404778
1499369137313,3.0823224231326094,-1.2512397955290453,0.2746623941404778
1499369137329,2.7161058976118966,-1.1291676203554744,0.213626306553806
1499369137345,2.8381780727854675,-1.1291676203554744,0.15259021896690683
1499369137361,2.7771419851987957,-1.0070954451819034,0.15259021896690683
1499369137377,2.655069810025225,-0.7629510948347615,0.15259021896690683
1499369137393,3.0212863355459376,-1.3122758831159445,0.15259021896690683
1499369137409,3.6316472114137923,-1.4343480582895154,0.2746623941404778
1499369137425,3.875791561760934,-1.3733119707026162,0.2746623941404778
1499369137441,3.6316472114137923,-1.4953841458761872,0.2746623941404778
1499369137457,3.7537193865873633,-1.4953841458761872,0.3967345693140487
1499369137473,3.814755474174035,-1.4953841458761872,0.33569848172737693
1499369137489,3.3875028610666504,-1.5564202334630863,0.2746623941404778
1499369137505,3.2043945983061803,-1.5564202334630863,0.2746623941404778
1499369137521,3.1433585107195086,-1.2512397955290453,0.2746623941404778
1499369137537,3.2043945983061803,-0.9460593575952316,0.213626306553806
1499369137553,3.0212863355459376,-0.9460593575952316,0.33569848172737693
1499369137569,3.3875028610666504,-0.7629510948347615,0.33569848172737693
1499369137585,3.570611123826893,-0.33569848172737693,0.3967345693140487
1499369137601,3.2043945983061803,-0.213626306553806,0.45777065690094787
1499369137617,2.9602502479590385,-0.3967345693140487,0.45777065690094787
1499369137633,3.4485389486533222,-0.7629510948347615,0.5188067444876197
1499369137649,3.6316472114137923,-0.7629510948347615,0.45777065690094787
1499369137665,3.6316472114137923,-1.0681315327688026,0.33569848172737693
1499369137681,3.692683299000464,-1.2512397955290453,0.2746623941404778
1499369137697,3.814755474174035,-1.1902037079423735,0.213626306553806
1499369137713,3.7537193865873633,-1.3733119707026162,0.33569848172737693
1499369137729,3.4485389486533222,-1.4343480582895154,0.45777065690094787
1499369137745,3.2043945983061803,-1.4953841458761872,0.5188067444876197
1499369137761,3.3264667734797513,-1.3733119707026162,0.45777065690094787
1499369137777,3.2654306858930795,-1.1902037079423735,0.33569848172737693
1499369137793,2.8992141603723667,-1.3122758831159445,0.33569848172737693
1499369137809,2.8992141603723667,-1.3733119707026162,0.3967345693140487
1499369137825,2.7771419851987957,-1.3733119707026162,0.3967345693140487
1499369137841,2.7771419851987957,-1.4343480582895154,0.33569848172737693
1499369137857,2.8992141603723667,-1.4953841458761872,0.213626306553806
1499369137873,3.0212863355459376,-1.5564202334630863,0.213626306553806
1499369137889,3.0212863355459376,-1.3122758831159445,0.213626306553806
1499369137905,3.0212863355459376,-1.4953841458761872,0.213626306553806
1499369137921,2.8992141603723667,-1.3733119707026162,0.15259021896690683
1499369137937,2.655069810025225,-1.1291676203554744,0.09155413138023505
1499369137953,2.8992141603723667,-1.0681315327688026,0.09155413138023505
1499369137969,2.8992141603723667,-1.0070954451819034,0.03051804379333589
1499369137985,2.655069810025225,-1.0070954451819034,0.03051804379333589
1499369138001,2.8381780727854675,-1.5564202334630863,0.2746623941404778
1499369138017,3.3264667734797513,-1.739528496223329,0.213626306553806
1499369138033,3.570611123826893,-1.5564202334630863,0.15259021896690683
1499369138049,3.6316472114137923,-1.4953841458761872,0.2746623941404778
1499369138065,3.7537193865873633,-1.3122758831159445,0.33569848172737693
1499369138081,3.875791561760934,-1.3122758831159445,0.2746623941404778
1499369138097,3.3264667734797513,-1.5564202334630863,0.213626306553806
1499369138113,2.8992141603723667,-1.6174563210497581,0.2746623941404778
1499369138129,2.8992141603723667,-1.5564202334630863,0.15259021896690683
1499369138145,3.0212863355459376,-1.4343480582895154,0.15259021896690683
1499369138161,3.0212863355459376,-1.739528496223329,0.2746623941404778
1499369138177,3.4485389486533222,-1.3733119707026162,0.213626306553806
1499369138193,3.570611123826893,-1.0681315327688026,0.15259021896690683
1499369138209,3.2654306858930795,-1.1902037079423735,0.09155413138023505
1499369138225,3.0212863355459376,-1.2512397955290453,0.15259021896690683
1499369138241,3.0212863355459376,-1.2512397955290453,0.09155413138023505
1499369138257,2.9602502479590385,-1.1902037079423735,0.09155413138023505
1499369138273,2.8992141603723667,-1.3122758831159445,0.15259021896690683
1499369138289,2.9602502479590385,-1.3122758831159445,0.09155413138023505
1499369138305,3.0212863355459376,-1.4343480582895154,0.15259021896690683
1499369138321,3.0823224231326094,-1.3733119707026162,0.15259021896690683
1499369138337,3.1433585107195086,-1.4343480582895154,0.15259021896690683
1499369138353,3.0823224231326094,-1.4953841458761872,0.213626306553806
1499369138369,3.0823224231326094,-1.6174563210497581,0.213626306553806
1499369138385,3.0212863355459376,-1.6784924086366573,0.15259021896690683
1499369138401,2.8992141603723667,-1.4953841458761872,0.09155413138023505
1499369138417,2.8381780727854675,-1.4953841458761872,0.15259021896690683
1499369138433,2.8992141603723667,-1.4953841458761872,0.09155413138023505
1499369138449,3.0212863355459376,-1.3122758831159445,0.09155413138023505
1499369138465,2.8381780727854675,-1.4343480582895154,0.09155413138023505
1499369138481,2.8381780727854675,-1.3733119707026162,0.15259021896690683
1499369138497,2.8992141603723667,-1.3122758831159445,0.09155413138023505
1499369138513,2.7771419851987957,-1.1902037079423735,0.09155413138023505
1499369138529,2.8992141603723667,-1.4953841458761872,0.09155413138023505
1499369138545,2.8992141603723667,-1.3733119707026162,0.03051804379333589
1499369138561,2.655069810025225,-1.3733119707026162,-0.03051804379333589
1499369138577,2.5940337224383256,-1.3122758831159445,-0.03051804379333589
1499369138593,2.7161058976118966,-1.2512397955290453,0.03051804379333589
1499369138609,2.410925459678083,-1.3122758831159445,0.15259021896690683
1499369138625,2.410925459678083,-1.739528496223329,0.2746623941404778
1499369138641,3.3264667734797513,-1.6174563210497581,0.213626306553806
1499369138657,3.4485389486533222,-1.3733119707026162,0.213626306553806
1499369138673,3.2043945983061803,-1.5564202334630863,0.2746623941404778
1499369138689,3.3875028610666504,-1.4343480582895154,0.33569848172737693
1499369138705,3.4485389486533222,-1.4343480582895154,0.213626306553806
1499369138721,3.1433585107195086,-1.6174563210497581,0.15259021896690683
1499369138737,2.8992141603723667,-1.4343480582895154,0.03051804379333589
1499369138753,2.7771419851987957,-1.3122758831159445,0.03051804379333589
1499369138769,2.7161058976118966,-1.2512397955290453,0.03051804379333589
1499369138785,2.8992141603723667,-1.5564202334630863,0.09155413138023505
1499369138801,3.4485389486533222,-1.1902037079423735,0.03051804379333589
1499369138817,3.2654306858930795,-1.0681315327688026,0.09155413138023505
1499369138833,2.7161058976118966,-1.0070954451819034,-0.03051804379333589
1499369138849,2.8992141603723667,-0.8850232700083325,0.09155413138023505
1499369138865,2.8381780727854675,-1.0070954451819034,0.09155413138023505
1499369138881,2.4719615472647547,-1.0070954451819034,0.09155413138023505
1499369138897,2.5940337224383256,-0.7629510948347615,0.213626306553806
1499369138913,2.532997634851654,-0.8850232700083325,0.2746623941404778
1499369138929,2.7771419851987957,-1.1902037079423735,0.33569848172737693
1499369138945,3.1433585107195086,-1.2512397955290453,0.45777065690094787
1499369138961,3.0212863355459376,-1.4953841458761872,0.45777065690094787
1499369138977,3.0212863355459376,-1.3733119707026162,0.45777065690094787
1499369138993,2.8381780727854675,-1.3733119707026162,0.3967345693140487
1499369139009,2.655069810025225,-1.3733119707026162,0.3967345693140487
1499369139025,2.7161058976118966,-1.1902037079423735,0.33569848172737693
1499369139041,2.8381780727854675,-1.2512397955290453,0.33569848172737693
1499369139057,2.7771419851987957,-1.3122758831159445,0.213626306553806
1499369139073,2.7771419851987957,-1.0681315327688026,0.15259021896690683
1499369139089,2.7771419851987957,-1.0070954451819034,0.15259021896690683
1499369139105,2.8381780727854675,-1.0681315327688026,0.15259021896690683
1499369139121,2.8381780727854675,-1.0681315327688026,0.213626306553806
1499369139137,2.7771419851987957,-0.7629510948347615,0.09155413138023505
1499369139153,2.7161058976118966,-1.0681315327688026,0.03051804379333589
1499369139169,2.5940337224383256,-1.1291676203554744,-0.03051804379333589
1499369139185,2.3498893720911838,-1.0070954451819034,-0.03051804379333589
1499369139201,2.227817196917613,-1.1291676203554744,-0.03051804379333589
1499369139217,2.3498893720911838,-1.1291676203554744,0.03051804379333589
1499369139233,2.4719615472647547,-1.1291676203554744,0.09155413138023505
1499369139249,2.655069810025225,-1.6174563210497581,0.15259021896690683
1499369139265,3.3264667734797513,-1.6174563210497581,0.213626306553806
1499369139281,3.5095750362402214,-1.2512397955290453,0.15259021896690683
1499369139297,3.0823224231326094,-1.2512397955290453,0.213626306553806
1499369139313,3.0823224231326094,-1.1902037079423735,0.33569848172737693
1499369139329,3.2654306858930795,-1.1902037079423735,0.33569848172737693
1499369139345,3.0212863355459376,-1.4343480582895154,0.15259021896690683
1499369139361,2.5940337224383256,-1.4953841458761872,0.15259021896690683
1499369139377,2.5940337224383256,-1.3733119707026162,0.15259021896690683
1499369139393,2.5940337224383256,-1.3122758831159445,0.09155413138023505
1499369139409,2.8381780727854675,-1.6174563210497581,0.15259021896690683
1499369139425,3.3875028610666504,-1.3733119707026162,0.15259021896690683
1499369139441,3.3264667734797513,-1.0681315327688026,0.15259021896690683
1499369139457,2.9602502479590385,-1.0681315327688026,0.09155413138023505
1499369139473,2.655069810025225,-1.0681315327688026,0.09155413138023505
1499369139489,2.7161058976118966,-1.1291676203554744,0.03051804379333589
1499369139505,2.532997634851654,-1.1291676203554744,0.03051804379333589
1499369139521,2.3498893720911838,-1.1902037079423735,0.09155413138023505
1499369139537,2.655069810025225,-1.1291676203554744,0.09155413138023505
1499369139553,2.8992141603723667,-1.2512397955290453,0.15259021896690683
1499369139569,3.0212863355459376,-1.3733119707026162,0.213626306553806
1499369139585,3.0212863355459376,-1.3733119707026162,0.213626306553806
1499369139601,2.9602502479590385,-1.4953841458761872,0.15259021896690683
1499369139617,2.7771419851987957,-1.4343480582895154,0.09155413138023505
1499369139633,2.7771419851987957,-1.3122758831159445,0.15259021896690683
1499369139649,2.655069810025225,-1.1902037079423735,0.09155413138023505
1499369139665,2.532997634851654,-1.1291676203554744,0.213626306553806
1499369139681,2.5940337224383256,-1.0681315327688026,0.213626306553806
1499369139697,2.532997634851654,-1.1902037079423735,0.15259021896690683
1499369139713,2.7771419851987957,-1.1291676203554744,0.15259021896690683
1499369139729,3.0212863355459376,-1.0681315327688026,0.213626306553806
1499369139745,2.9602502479590385,-1.3122758831159445,0.03051804379333589
1499369139761,2.7161058976118966,-1.1291676203554744,0.03051804379333589
1499369139777,2.3498893720911838,-1.1902037079423735,-0.03051804379333589
1499369139793,2.410925459678083,-1.2512397955290453,0.03051804379333589
1499369139809,2.410925459678083,-1.1291676203554744,0.03051804379333589
1499369139825,2.3498893720911838,-1.0681315327688026,0.15259021896690683
1499369139841,2.4719615472647547,-1.3733119707026162,0.213626306553806
1499369139857,2.8992141603723667,-1.4343480582895154,0.15259021896690683
1499369139873,2.9602502479590385,-1.2512397955290453,0.2746623941404778
1499369139889,2.8381780727854675,-1.1902037079423735,0.3967345693140487
1499369139905,3.0212863355459376,-1.3122758831159445,0.33569848172737693
1499369139921,3.0823224231326094,-1.4343480582895154,0.213626306553806
1499369139937,2.8992141603723667,-1.5564202334630863,0.213626306553806
1499369139953,2.8381780727854675,-1.6174563210497581,0.09155413138023505
1499369139969,2.8381780727854675,-1.3122758831159445,0.09155413138023505
1499369139985,2.655069810025225,-1.5564202334630863,0.213626306553806
1499369140001,3.2043945983061803,-1.5564202334630863,0.15259021896690683
1499369140017,3.5095750362402214,-1.2512397955290453,0.09155413138023505
1499369140033,3.2043945983061803,-1.0681315327688026,0.09155413138023505
1499369140049,2.7161058976118966,-1.0070954451819034,0.03051804379333589
1499369140065,2.655069810025225,-1.1291676203554744,0.03051804379333589
1499369140081,2.9602502479590385,-1.0681315327688026,-0.03051804379333589
1499369140097,2.9602502479590385,-1.1291676203554744,0.09155413138023505
1499369140113,2.9602502479590385,-1.1291676203554744,0.03051804379333589
1499369140129,2.9602502479590385,-1.1902037079423735,0.15259021896690683
1499369140145,3.0212863355459376,-1.3122758831159445,0.15259021896690683
1499369140161,3.0212863355459376,-1.4343480582895154,0.15259021896690683
1499369140177,2.8992141603723667,-1.3733119707026162,0.2746623941404778
1499369140193,2.9602502479590385,-1.3733119707026162,0.2746623941404778
1499369140209,3.0823224231326094,-1.3122758831159445,0.2746623941404778
1499369140225,2.9602502479590385,-1.1902037079423735,0.213626306553806
1499369140241,2.8381780727854675,-1.3122758831159445,0.15259021896690683
1499369140257,2.8992141603723667,-1.3122758831159445,0.15259021896690683
1499369140273,2.7771419851987957,-1.3122758831159445,0.213626306553806
1499369140289,2.7771419851987957,-1.0681315327688026,0.213626306553806
1499369140305,2.7771419851987957,-1.1902037079423735,0.15259021896690683
1499369140321,2.5940337224383256,-1.0681315327688026,0.15259021896690683
1499369140337,2.105745021744042,-0.9460593575952316,0.15259021896690683
1499369140353,1.983672846570471,-1.0070954451819034,0.15259021896690683
