Timestamp (ms),Accel X (g),Accel Y (g),Accel Z (g)
1499369107316,-0.4497749294270239,0.7481193255512322,0.5119096665903715
1499369107332,-0.45209430075532175,0.7462882429236286,0.5097123674372472
1499369107348,-0.4506294346532389,0.7457999542229343,0.5089799343862058
1499369107364,-0.44965285725185034,0.74531166552224,0.5119096665903715
1499369107380,-0.44831006332494105,0.7476310368505379,0.5112993057145037
1499369107396,-0.4476997024490732,0.7483634699015793,0.5130083161669337
1499369107412,-0.4476997024490732,0.7487296864271,0.5125200274662394
1499369107428,-0.4490424963759825,0.7486076142519265,0.5119096665903715
1499369107444,-0.4480659189745939,0.7483634699015793,0.5142290379186694
1499369107460,-0.44879835202563534,0.7483634699015793,0.5133745326924544
1499369107476,-0.44879835202563534,0.7473868925001907,0.5133745326924544
1499369107492,-0.44965285725185034,0.7488517586022736,0.5117875944151979
1499369107508,-0.45001907377737105,0.7486076142519265,0.5125200274662394
1499369107524,-0.44953078507667676,0.7484855420767529,0.5115434500648508
1499369107540,-0.4484321355001146,0.7476310368505379,0.5138628213931486
1499369107556,-0.44745555809872606,0.7468986037994965,0.5132524605172808
1499369107572,-0.4469672693980318,0.7468986037994965,0.5111772335393301
1499369107588,-0.4494087129015032,0.7468986037994965,0.5123979552910658
1499369107604,-0.4480659189745939,0.74702067597467,0.5103227283131151
1499369107620,-0.44953078507667676,0.7472648203250172,0.5130083161669337
1499369107636,-0.44794384679942034,0.7475089646753643,0.5148393987945372
1499369107652,-0.4484321355001146,0.7484855420767529,0.5131303883421072
1499369107668,-0.4494087129015032,0.7479972533760586,0.5121538109407187
1499369107684,-0.4507515068284125,0.74702067597467,0.5136186770428015
1499369107700,-0.4501411459525446,0.7465323872739758,0.5133745326924544
1499369107716,-0.4497749294270239,0.7462882429236286,0.5116655222400244
1499369107732,-0.4476997024490732,0.7456778820477608,0.5125200274662394
1499369107748,-0.4459906919966432,0.7499504081788357,0.5102006561379415
1499369107764,-0.44708934157320535,0.7484855420767529,0.5132524605172808
1499369107780,-0.44831006332494105,0.7488517586022736,0.510933089188983
1499369107796,-0.4489204242008089,0.7468986037994965,0.5106889448386358
1499369107812,-0.45050736247806533,0.7481193255512322,0.5115434500648508
1499369107828,-0.4506294346532389,0.7503166247043564,0.5120317387655451
1499369107844,-0.44953078507667676,0.7497062638284886,0.5137407492179751
1499369107860,-0.4492866407263296,0.7466544594491493,0.5142290379186694
1499369107876,-0.4494087129015032,0.7476310368505379,0.5132524605172808
1499369107892,-0.44757763027389963,0.7483634699015793,0.5138628213931486
1499369107908,-0.44794384679942034,0.7487296864271,0.5133745326924544
1499369107924,-0.4480659189745939,0.7482413977264057,0.5128862439917601
1499369107940,-0.4492866407263296,0.7477531090257115,0.5114213778896772
1499369107956,-0.4492866407263296,0.7483634699015793,0.510933089188983
1499369107972,-0.4502632181277182,0.7471427481498436,0.5132524605172808
1499369107988,-0.4497749294270239,0.7473868925001907,0.5127641718165865
1499369108004,-0.4501411459525446,0.7475089646753643,0.5111772335393301
1499369108020,-0.4481879911497675,0.7462882429236286,0.5112993057145037
1499369108036,-0.44794384679942034,0.7466544594491493,0.5133745326924544
1499369108052,-0.4498970016021975,0.7475089646753643,0.5136186770428015
1499369108068,-0.4476997024490732,0.7465323872739758,0.5121538109407187
1499369108084,-0.44867627985046177,0.74702067597467,0.5128862439917601
1499369108100,-0.4490424963759825,0.7477531090257115,0.5144731822690165
1499369108116,-0.45123979552910676,0.7479972533760586,0.5106889448386358
1499369108132,-0.4494087129015032,0.7481193255512322,0.5111772335393301
1499369108148,-0.4490424963759825,0.7468986037994965,0.5126420996414129
1499369108164,-0.4481879911497675,0.7481193255512322,0.5143511100938429
1499369108180,-0.4476997024490732,0.7479972533760586,0.5134966048676279
1499369108196,-0.44794384679942034,0.7475089646753643,0.5120317387655451
1499369108212,-0.44916456855115605,0.7490959029526207,0.5121538109407187
1499369108228,-0.44916456855115605,0.7494621194781415,0.5130083161669337
1499369108244,-0.4498970016021975,0.7477531090257115,0.5111772335393301
1499369108260,-0.4497749294270239,0.7471427481498436,0.5127641718165865
1499369108275,-0.4506294346532389,0.7476310368505379,0.5106889448386358
1499369108291,-0.45294880598153675,0.7462882429236286,0.5111772335393301
1499369108307,-0.45123979552910676,0.7464103150988022,0.5121538109407187
1499369108323,-0.44794384679942034,0.747875181200885,0.5119096665903715
1499369108339,-0.44745555809872606,0.7479972533760586,0.5145952544441901
1499369108355,-0.44623483634699035,0.7482413977264057,0.5130083161669337
1499369108371,-0.4456244754711225,0.7490959029526207,0.5111772335393301
1499369108387,-0.4484321355001146,0.7477531090257115,0.5131303883421072
1499369108403,-0.44953078507667676,0.7476310368505379,0.5131303883421072
1499369108419,-0.44953078507667676,0.7479972533760586,0.5154497596704051
1499369108435,-0.44867627985046177,0.7486076142519265,0.5133745326924544
1499369108451,-0.44953078507667676,0.7484855420767529,0.5143511100938429
1499369108467,-0.4490424963759825,0.7468986037994965,0.5138628213931486
1499369108483,-0.4464789806973375,0.7449454489967193,0.5114213778896772
1499369108499,-0.44708934157320535,0.7467765316243229,0.5131303883421072
1499369108515,-0.4473334859235525,0.7475089646753643,0.5139848935683222
1499369108531,-0.4490424963759825,0.7476310368505379,0.5130083161669337
1499369108547,-0.4509956511787596,0.74702067597467,0.5131303883421072
1499369108563,-0.4497749294270239,0.7465323872739758,0.5128862439917601
1499369108579,-0.45001907377737105,0.7455558098725872,0.5154497596704051
1499369108595,-0.4484321355001146,0.746166170748455,0.5125200274662394
1499369108611,-0.44879835202563534,0.7467765316243229,0.5141069657434958
1499369108627,-0.4480659189745939,0.7483634699015793,0.5132524605172808
1499369108643,-0.44867627985046177,0.7471427481498436,0.5127641718165865
1499369108659,-0.4492866407263296,0.7468986037994965,0.5147173266193636
1499369108675,-0.44965285725185034,0.7487296864271,0.5143511100938429
1499369108691,-0.44831006332494105,0.7481193255512322,0.5144731822690165
1499369108707,-0.44867627985046177,0.7466544594491493,0.5131303883421072
1499369108723,-0.4489204242008089,0.7477531090257115,0.5128862439917601
1499369108739,-0.4490424963759825,0.747875181200885,0.5153276874952315
1499369108755,-0.4494087129015032,0.7482413977264057,0.5145952544441901
1499369108771,-0.4497749294270239,0.7479972533760586,0.5148393987945372
1499369108787,-0.4489204242008089,0.7482413977264057,0.5123979552910658
1499369108803,-0.44745555809872606,0.7465323872739758,0.5153276874952315
1499369108819,-0.4472114137483789,0.7487296864271,0.5138628213931486
1499369108835,-0.44745555809872606,0.7482413977264057,0.5121538109407187
1499369108851,-0.44916456855115605,0.7467765316243229,0.5108110170138094
1499369108867,-0.45001907377737105,0.7462882429236286,0.5138628213931486
1499369108883,-0.45160601205462747,0.746166170748455,0.5159380483710994
1499369108899,-0.45050736247806533,0.74702067597467,0.5134966048676279
1499369108915,-0.4489204242008089,0.7462882429236286,0.5122758831158922
1499369108931,-0.4484321355001146,0.7481193255512322,0.5131303883421072
1499369108947,-0.4468451972228582,0.749584191653315,0.5138628213931486
1499369108963,-0.4472114137483789,0.7467765316243229,0.5144731822690165
1499369108979,-0.4472114137483789,0.7482413977264057,0.5147173266193636
1499369108995,-0.44879835202563534,0.7481193255512322,0.5152056153200579
1499369109011,-0.4497749294270239,0.7481193255512322,0.5128862439917601
1499369109027,-0.4497749294270239,0.7494621194781415,0.5142290379186694
1499369109043,-0.44867627985046177,0.7488517586022736,0.5152056153200579
1499369109059,-0.44879835202563534,0.7464103150988022,0.5127641718165865
1499369109075,-0.44782177462424677,0.74702067597467,0.5105668726634622
1499369109091,-0.44623483634699035,0.7471427481498436,0.5132524605172808
1499369109107,-0.44745555809872606,0.7467765316243229,0.5138628213931486
1499369109123,-0.4485542076752882,0.7477531090257115,0.5138628213931486
1499369109139,-0.45050736247806533,0.7457999542229343,0.5132524605172808
1499369109155,-0.4509956511787596,0.7476310368505379,0.5143511100938429
1499369109171,-0.44965285725185034,0.7476310368505379,0.5115434500648508
1499369109187,-0.45038529030289176,0.74702067597467,0.5148393987945372
1499369109203,-0.44879835202563534,0.7481193255512322,0.5142290379186694
1499369109219,-0.44879835202563534,0.7481193255512322,0.5134966048676279
1499369109235,-0.4473334859235525,0.7471427481498436,0.5147173266193636
1499369109251,-0.4480659189745939,0.7492179751277943,0.5145952544441901
1499369109267,-0.44916456855115605,0.7492179751277943,0.5142290379186694
1499369109283,-0.4506294346532389,0.7472648203250172,0.5145952544441901
1499369109299,-0.44953078507667676,0.7479972533760586,0.5172808422980086
1499369109315,-0.4494087129015032,0.7484855420767529,0.5155718318455786
1499369109331,-0.44965285725185034,0.7476310368505379,0.5133745326924544
1499369109347,-0.44757763027389963,0.7483634699015793,0.5152056153200579
1499369109363,-0.44708934157320535,0.7479972533760586,0.5154497596704051
1499369109379,-0.4480659189745939,0.7475089646753643,0.5119096665903715
1499369109395,-0.44965285725185034,0.7476310368505379,0.5134966048676279
1499369109411,-0.4511177233539332,0.7473868925001907,0.5134966048676279
1499369109427,-0.4506294346532389,0.7477531090257115,0.5145952544441901
1499369109443,-0.44867627985046177,0.74702067597467,0.5143511100938429
1499369109459,-0.4485542076752882,0.7476310368505379,0.5143511100938429
1499369109474,-0.4507515068284125,0.7488517586022736,0.5143511100938429
1499369109490,-0.45050736247806533,0.7482413977264057,0.5160601205462729
1499369109506,-0.4502632181277182,0.7477531090257115,0.5166704814221408
1499369109522,-0.4492866407263296,0.7484855420767529,0.5133745326924544
1499369109538,-0.4480659189745939,0.7493400473029679,0.5145952544441901
1499369109554,-0.4468451972228582,0.7487296864271,0.5148393987945372
1499369109570,-0.4494087129015032,0.7482413977264057,0.5149614709697108
1499369109586,-0.44879835202563534,0.7479972533760586,0.5144731822690165
1499369109602,-0.4498970016021975,0.74702067597467,0.5148393987945372
1499369109618,-0.44794384679942034,0.7476310368505379,0.5142290379186694
1499369109634,-0.4464789806973375,0.7459220263981079,0.5143511100938429
1499369109650,-0.4489204242008089,0.7477531090257115,0.5145952544441901
1499369109666,-0.4480659189745939,0.7487296864271,0.5158159761959258
1499369109682,-0.4490424963759825,0.7467765316243229,0.5143511100938429
1499369109698,-0.44965285725185034,0.7462882429236286,0.5139848935683222
1499369109714,-0.4509956511787596,0.7465323872739758,0.5132524605172808
1499369109730,-0.45160601205462747,0.7467765316243229,0.5127641718165865
1499369109746,-0.4518501564049746,0.7466544594491493,0.5121538109407187
1499369109762,-0.4528267338063632,0.7486076142519265,0.5148393987945372
1499369109778,-0.4544136720836196,0.7440909437705043,0.5112993057145037
1499369109794,-0.4536812390325782,0.7429922941939422,0.5116655222400244
1499369109810,-0.4535591668574046,0.7440909437705043,0.5132524605172808
1499369109826,-0.4536812390325782,0.7432364385442893,0.5128862439917601
1499369109842,-0.4531929503318839,0.7486076142519265,0.5091020065613794
1499369109858,-0.4539253833829253,0.7447013046463722,0.5175249866483558
1499369109874,-0.4536812390325782,0.7432364385442893,0.5106889448386358
1499369109890,-0.45038529030289176,0.7457999542229343,0.5122758831158922
1499369109906,-0.4506294346532389,0.7439688715953308,0.5119096665903715
1499369109922,-0.4501411459525446,0.7465323872739758,0.5147173266193636
1499369109938,-0.44965285725185034,0.7429922941939422,0.5139848935683222
1499369109954,-0.4498970016021975,0.7431143663691158,0.5165484092469672
1499369109970,-0.4528267338063632,0.74531166552224,0.5143511100938429
1499369109986,-0.4511177233539332,0.7456778820477608,0.5166704814221408
1499369110002,-0.4518501564049746,0.74702067597467,0.5169146257724879
1499369110018,-0.45209430075532175,0.7475089646753643,0.5142290379186694
1499369110034,-0.4501411459525446,0.7457999542229343,0.5145952544441901
1499369110050,-0.4490424963759825,0.7449454489967193,0.5164263370717936
1499369110066,-0.4507515068284125,0.744457160296025,0.5131303883421072
1499369110082,-0.4523384451056689,0.7455558098725872,0.5147173266193636
1499369110098,-0.4540474555580989,0.744457160296025,0.5148393987945372
1499369110114,-0.45343709468223103,0.74531166552224,0.5126420996414129
1499369110130,-0.45331502250705746,0.74531166552224,0.5131303883421072
1499369110146,-0.45160601205462747,0.7449454489967193,0.5132524605172808
1499369110162,-0.45172808422980104,0.7460440985732815,0.5123979552910658
1499369110178,-0.4492866407263296,0.7475089646753643,0.5128862439917601
1499369110194,-0.44660105287251106,0.7488517586022736,0.5134966048676279
1499369110210,-0.4463569085221639,0.7481193255512322,0.5141069657434958
1499369110226,-0.4484321355001146,0.7489738307774472,0.5165484092469672
1499369110242,-0.45001907377737105,0.7500724803540093,0.5166704814221408
1499369110258,-0.4494087129015032,0.7481193255512322,0.5142290379186694
1499369110274,-0.45209430075532175,0.7471427481498436,0.5144731822690165
1499369110290,-0.45294880598153675,0.7467765316243229,0.5137407492179751
1499369110306,-0.4506294346532389,0.7487296864271,0.5156939040207522
1499369110322,-0.4507515068284125,0.7475089646753643,0.5134966048676279
1499369110338,-0.4507515068284125,0.7479972533760586,0.5134966048676279
1499369110354,-0.4498970016021975,0.7451895933470665,0.5130083161669337
1499369110370,-0.4514839398794539,0.7451895933470665,0.5104448004882887
1499369110386,-0.4511177233539332,0.7460440985732815,0.5097123674372472
1499369110402,-0.4511177233539332,0.7467765316243229,0.5126420996414129
1499369110418,-0.4509956511787596,0.7462882429236286,0.5130083161669337
1499369110434,-0.4531929503318839,0.7468986037994965,0.5131303883421072
1499369110450,-0.4511177233539332,0.7467765316243229,0.5127641718165865
1499369110466,-0.4514839398794539,0.7471427481498436,0.5145952544441901
1499369110482,-0.45050736247806533,0.747875181200885,0.5145952544441901
1499369110498,-0.44953078507667676,0.7475089646753643,0.5161821927214465
1499369110514,-0.4511177233539332,0.747875181200885,0.5164263370717936
1499369110530,-0.4511177233539332,0.7479972533760586,0.5150835431448844
1499369110546,-0.4497749294270239,0.7492179751277943,0.5123979552910658
1499369110562,-0.45172808422980104,0.7462882429236286,0.5144731822690165
1499369110578,-0.4511177233539332,0.74702067597467,0.5154497596704051
1499369110594,-0.4509956511787596,0.7457999542229343,0.5134966048676279
1499369110610,-0.4498970016021975,0.7454337376974136,0.5123979552910658
1499369110626,-0.4509956511787596,0.74702067597467,0.5138628213931486
1499369110642,-0.4511177233539332,0.74702067597467,0.5132524605172808
1499369110658,-0.45294880598153675,0.7451895933470665,0.5115434500648508
1499369110673,-0.4545357442587932,0.7467765316243229,0.5106889448386358
1499369110689,-0.4530708781567103,0.7454337376974136,0.5127641718165865
1499369110705,-0.4514839398794539,0.7455558098725872,0.5145952544441901
1499369110721,-0.45050736247806533,0.7471427481498436,0.5139848935683222
1499369110737,-0.44867627985046177,0.7465323872739758,0.5144731822690165
1499369110753,-0.4476997024490732,0.7462882429236286,0.5131303883421072
1499369110769,-0.4501411459525446,0.7464103150988022,0.5139848935683222
1499369110785,-0.4492866407263296,0.74702067597467,0.5155718318455786
1499369110801,-0.4498970016021975,0.7483634699015793,0.5120317387655451
1499369110817,-0.4506294346532389,0.7473868925001907,0.5143511100938429
1499369110833,-0.45050736247806533,0.7466544594491493,0.5126420996414129
1499369110849,-0.4498970016021975,0.7467765316243229,0.5143511100938429
1499369110865,-0.44965285725185034,0.7460440985732815,0.5149614709697108
1499369110881,-0.44831006332494105,0.7459220263981079,0.5134966048676279
1499369110897,-0.4492866407263296,0.7464103150988022,0.5138628213931486
1499369110913,-0.45172808422980104,0.7473868925001907,0.5130083161669337
1499369110929,-0.4523384451056689,0.7477531090257115,0.5130083161669337
1499369110945,-0.45087357900358604,0.7454337376974136,0.5111772335393301
1499369110961,-0.45050736247806533,0.7456778820477608,0.5159380483710994
1499369110977,-0.4511177233539332,0.7472648203250172,0.5115434500648508
1499369110993,-0.45050736247806533,0.7462882429236286,0.5161821927214465
1499369111009,-0.4502632181277182,0.7466544594491493,0.5126420996414129
1499369111025,-0.4514839398794539,0.7465323872739758,0.5116655222400244
1499369111041,-0.4489204242008089,0.7481193255512322,0.5145952544441901
1499369111057,-0.4502632181277182,0.7471427481498436,0.5139848935683222
1499369111073,-0.45001907377737105,0.7464103150988022,0.5160601205462729
1499369111089,-0.4506294346532389,0.7476310368505379,0.5155718318455786
1499369111105,-0.45087357900358604,0.7465323872739758,0.5153276874952315
1499369111121,-0.4506294346532389,0.747875181200885,0.5145952544441901
1499369111137,-0.45038529030289176,0.7481193255512322,0.5131303883421072
1499369111153,-0.45209430075532175,0.7492179751277943,0.5142290379186694
1499369111169,-0.4490424963759825,0.7500724803540093,0.5159380483710994
1499369111185,-0.4472114137483789,0.7465323872739758,0.5154497596704051
1499369111201,-0.44831006332494105,0.7465323872739758,0.5187457084000915
1499369111217,-0.45001907377737105,0.7454337376974136,0.5145952544441901
1499369111233,-0.45294880598153675,0.7459220263981079,0.5148393987945372
1499369111249,-0.45331502250705746,0.747875181200885,0.5164263370717936
1499369111265,-0.45136186770428033,0.7456778820477608,0.5145952544441901
1499369111281,-0.44953078507667676,0.7464103150988022,0.5141069657434958
1499369111297,-0.4490424963759825,0.7479972533760586,0.5149614709697108
1499369111313,-0.44916456855115605,0.7472648203250172,0.5152056153200579
1499369111329,-0.4481879911497675,0.7473868925001907,0.5148393987945372
1499369111345,-0.4501411459525446,0.7488517586022736,0.5145952544441901
1499369111361,-0.44953078507667676,0.7476310368505379,0.5138628213931486
1499369111377,-0.4514839398794539,0.7477531090257115,0.5152056153200579
1499369111393,-0.4518501564049746,0.7473868925001907,0.5156939040207522
1499369111409,-0.4507515068284125,0.7476310368505379,0.5145952544441901
1499369111425,-0.4498970016021975,0.7442130159456779,0.5152056153200579
1499369111441,-0.4498970016021975,0.7459220263981079,0.5174029144731822
1499369111457,-0.4501411459525446,0.744457160296025,0.5116655222400244
1499369111473,-0.45087357900358604,0.7448233768215458,0.5126420996414129
1499369111489,-0.45172808422980104,0.7451895933470665,0.5145952544441901
1499369111505,-0.4519722285801482,0.746166170748455,0.5167925535973144
1499369111521,-0.45258258945601604,0.7464103150988022,0.5112993057145037
1499369111537,-0.45038529030289176,0.7465323872739758,0.5148393987945372
1499369111553,-0.4497749294270239,0.7465323872739758,0.5161821927214465
1499369111569,-0.44953078507667676,0.7468986037994965,0.5149614709697108
1499369111585,-0.4480659189745939,0.747875181200885,0.5160601205462729
1499369111601,-0.4485542076752882,0.7487296864271,0.5166704814221408
1499369111617,-0.4490424963759825,0.74702067597467,0.5176470588235293
1499369111633,-0.45001907377737105,0.7457999542229343,0.5150835431448844
1499369111649,-0.4501411459525446,0.7459220263981079,0.5141069657434958
1499369111665,-0.45160601205462747,0.7476310368505379,0.5154497596704051
1499369111681,-0.4501411459525446,0.7472648203250172,0.5145952544441901
1499369111697,-0.44867627985046177,0.7462882429236286,0.5139848935683222
1499369111713,-0.4494087129015032,0.7473868925001907,0.5144731822690165
1499369111729,-0.4490424963759825,0.7472648203250172,0.5144731822690165
1499369111745,-0.4490424963759825,0.7465323872739758,0.5134966048676279
1499369111761,-0.4501411459525446,0.74531166552224,0.5139848935683222
1499369111777,-0.4522163729304953,0.7454337376974136,0.5138628213931486
1499369111793,-0.45502403295948746,0.7473868925001907,0.5142290379186694
1499369111809,-0.45429159990844603,0.7465323872739758,0.5154497596704051
1499369111825,-0.4501411459525446,0.7467765316243229,0.5132524605172808
1499369111841,-0.4472114137483789,0.7477531090257115,0.5122758831158922
1499369111857,-0.44586861982146964,0.7471427481498436,0.5128862439917601
1499369111873,-0.4480659189745939,0.747875181200885,0.5163042648966201
1499369111889,-0.4484321355001146,0.7455558098725872,0.5153276874952315
1499369111904,-0.45038529030289176,0.7473868925001907,0.5142290379186694
1499369111920,-0.4535591668574046,0.7471427481498436,0.5116655222400244
1499369111936,-0.45380331120775175,0.7472648203250172,0.5125200274662394
1499369111952,-0.4509956511787596,0.7466544594491493,0.5130083161669337
1499369111968,-0.44879835202563534,0.7451895933470665,0.5144731822690165
1499369111984,-0.4476997024490732,0.7466544594491493,0.5161821927214465
1499369112000,-0.44831006332494105,0.7464103150988022,0.5158159761959258
1499369112016,-0.4490424963759825,0.7468986037994965,0.5115434500648508
1499369112032,-0.4509956511787596,0.7471427481498436,0.5130083161669337
1499369112048,-0.45123979552910676,0.7471427481498436,0.5122758831158922
1499369112064,-0.4530708781567103,0.7460440985732815,0.5133745326924544
1499369112080,-0.45258258945601604,0.7465323872739758,0.5147173266193636
1499369112096,-0.4511177233539332,0.7460440985732815,0.5139848935683222
1499369112112,-0.45123979552910676,0.7456778820477608,0.5127641718165865
1499369112128,-0.44953078507667676,0.7477531090257115,0.5142290379186694
1499369112144,-0.44867627985046177,0.747875181200885,0.5145952544441901
1499369112160,-0.44879835202563534,0.7465323872739758,0.5133745326924544
1499369112176,-0.44916456855115605,0.7465323872739758,0.5142290379186694
1499369112192,-0.4497749294270239,0.7448233768215458,0.5126420996414129
1499369112208,-0.4511177233539332,0.7455558098725872,0.5127641718165865
1499369112224,-0.45209430075532175,0.7471427481498436,0.5136186770428015
1499369112240,-0.4506294346532389,0.7472648203250172,0.5158159761959258
1499369112256,-0.4490424963759825,0.74531166552224,0.5153276874952315
1499369112272,-0.4506294346532389,0.7451895933470665,0.5148393987945372
1499369112288,-0.45001907377737105,0.7471427481498436,0.5144731822690165
1499369112304,-0.44757763027389963,0.7456778820477608,0.5153276874952315
1499369112320,-0.44879835202563534,0.7457999542229343,0.5131303883421072
1499369112336,-0.4522163729304953,0.7467765316243229,0.5159380483710994
1499369112352,-0.45246051728084247,0.746166170748455,0.5152056153200579
1499369112368,-0.4557564660105289,0.7466544594491493,0.5139848935683222
1499369112384,-0.4535591668574046,0.7464103150988022,0.5144731822690165
1499369112400,-0.4502632181277182,0.7455558098725872,0.5131303883421072
1499369112416,-0.44831006332494105,0.7443350881208515,0.5154497596704051
1499369112432,-0.44745555809872606,0.74702067597467,0.5142290379186694
1499369112448,-0.44831006332494105,0.7476310368505379,0.5142290379186694
1499369112464,-0.4502632181277182,0.746166170748455,0.5155718318455786
1499369112480,-0.4507515068284125,0.7467765316243229,0.5141069657434958
1499369112496,-0.4522163729304953,0.7464103150988022,0.5154497596704051
1499369112512,-0.4514839398794539,0.7484855420767529,0.5149614709697108
1499369112528,-0.4502632181277182,0.7472648203250172,0.5127641718165865
1499369112544,-0.4481879911497675,0.7468986037994965,0.5164263370717936
1499369112560,-0.44867627985046177,0.7464103150988022,0.5148393987945372
1499369112576,-0.44879835202563534,0.7476310368505379,0.5148393987945372
1499369112592,-0.4497749294270239,0.7459220263981079,0.5150835431448844
1499369112608,-0.4507515068284125,0.7451895933470665,0.5147173266193636
1499369112624,-0.45294880598153675,0.7451895933470665,0.5137407492179751
1499369112640,-0.4519722285801482,0.7465323872739758,0.5141069657434958
1499369112656,-0.4522163729304953,0.7475089646753643,0.5134966048676279
1499369112672,-0.4485542076752882,0.7459220263981079,0.5117875944151979
1499369112688,-0.4469672693980318,0.7459220263981079,0.5150835431448844
1499369112704,-0.44757763027389963,0.74702067597467,0.5143511100938429
1499369112720,-0.44916456855115605,0.7468986037994965,0.5153276874952315
1499369112736,-0.4507515068284125,0.7455558098725872,0.5155718318455786
1499369112752,-0.4527046616311896,0.7473868925001907,0.5141069657434958
1499369112768,-0.45258258945601604,0.7464103150988022,0.5155718318455786
1499369112784,-0.45343709468223103,0.747875181200885,0.5137407492179751
1499369112800,-0.4514839398794539,0.746166170748455,0.5152056153200579
1499369112816,-0.4484321355001146,0.7457999542229343,0.5126420996414129
1499369112832,-0.4489204242008089,0.7468986037994965,0.5132524605172808
1499369112848,-0.44965285725185034,0.7448233768215458,0.5128862439917601
1499369112864,-0.4507515068284125,0.7460440985732815,0.5127641718165865
1499369112880,-0.45209430075532175,0.7467765316243229,0.5127641718165865
1499369112896,-0.45246051728084247,0.7467765316243229,0.5147173266193636
1499369112912,-0.45123979552910676,0.7467765316243229,0.5143511100938429
1499369112928,-0.45294880598153675,0.7455558098725872,0.5145952544441901
1499369112944,-0.4514839398794539,0.7464103150988022,0.5159380483710994
1499369112960,-0.4523384451056689,0.7464103150988022,0.5181353475242236
1499369112976,-0.45001907377737105,0.7465323872739758,0.5143511100938429
1499369112992,-0.4494087129015032,0.7471427481498436,0.5148393987945372
1499369113008,-0.4506294346532389,0.74702067597467,0.5155718318455786
1499369113024,-0.44953078507667676,0.7449454489967193,0.5142290379186694
1499369113040,-0.4519722285801482,0.7449454489967193,0.5164263370717936
1499369113056,-0.45209430075532175,0.7448233768215458,0.5174029144731822
1499369113072,-0.4528267338063632,0.7457999542229343,0.5144731822690165
1499369113088,-0.45294880598153675,0.7457999542229343,0.5156939040207522
1499369113104,-0.45258258945601604,0.7462882429236286,0.5155718318455786
1499369113120,-0.45246051728084247,0.7448233768215458,0.5134966048676279
1499369113136,-0.45172808422980104,0.7465323872739758,0.5133745326924544
1499369113152,-0.45136186770428033,0.7437247272449836,0.5143511100938429
1499369113168,-0.45172808422980104,0.7445792324711986,0.5150835431448844
1499369113184,-0.4527046616311896,0.7445792324711986,0.5159380483710994
1499369113200,-0.4528267338063632,0.7443350881208515,0.5138628213931486
1499369113215,-0.4519722285801482,0.7462882429236286,0.5145952544441901
1499369113231,-0.45123979552910676,0.744457160296025,0.5141069657434958
1499369113247,-0.4518501564049746,0.7460440985732815,0.5128862439917601
1499369113263,-0.4514839398794539,0.7466544594491493,0.5141069657434958
1499369113279,-0.45050736247806533,0.7460440985732815,0.5142290379186694
1499369113295,-0.4511177233539332,0.74531166552224,0.5166704814221408
1499369113311,-0.45050736247806533,0.7451895933470665,0.5149614709697108
1499369113327,-0.45172808422980104,0.74531166552224,0.5154497596704051
1499369113343,-0.4527046616311896,0.7456778820477608,0.5145952544441901
1499369113359,-0.45172808422980104,0.7464103150988022,0.5128862439917601
1499369113375,-0.45123979552910676,0.7450675211718929,0.5133745326924544
1499369113391,-0.44965285725185034,0.7466544594491493,0.5156939040207522
1499369113407,-0.4502632181277182,0.7482413977264057,0.5147173266193636
1499369113423,-0.4497749294270239,0.7460440985732815,0.5145952544441901
1499369113439,-0.4514839398794539,0.7481193255512322,0.5142290379186694
1499369113455,-0.45258258945601604,0.74702067597467,0.5158159761959258
1499369113471,-0.4540474555580989,0.7447013046463722,0.5150835431448844
1499369113487,-0.45087357900358604,0.7447013046463722,0.5159380483710994
1499369113503,-0.45136186770428033,0.7432364385442893,0.5152056153200579
1499369113519,-0.45087357900358604,0.7442130159456779,0.5164263370717936
1499369113535,-0.4530708781567103,0.7442130159456779,0.5156939040207522
1499369113551,-0.4531929503318839,0.742748149843595,0.5123979552910658
1499369113567,-0.4528267338063632,0.744457160296025,0.5132524605172808
1499369113583,-0.45160601205462747,0.7442130159456779,0.5112993057145037
1499369113599,-0.45136186770428033,0.7445792324711986,0.5125200274662394
1499369113615,-0.45038529030289176,0.7440909437705043,0.5142290379186694
1499369113631,-0.44953078507667676,0.7447013046463722,0.5148393987945372
1499369113647,-0.45136186770428033,0.7445792324711986,0.5147173266193636
1499369113663,-0.4497749294270239,0.7468986037994965,0.5147173266193636
1499369113679,-0.4509956511787596,0.7481193255512322,0.5154497596704051
1499369113695,-0.44879835202563534,0.74702067597467,0.5131303883421072
1499369113711,-0.4490424963759825,0.7473868925001907,0.5150835431448844
1499369113727,-0.44879835202563534,0.7468986037994965,0.5158159761959258
1499369113743,-0.4497749294270239,0.7488517586022736,0.5156939040207522
1499369113759,-0.4514839398794539,0.7482413977264057,0.5147173266193636
1499369113775,-0.45136186770428033,0.74702067597467,0.5154497596704051
1499369113791,-0.45172808422980104,0.7456778820477608,0.5145952544441901
1499369113807,-0.44953078507667676,0.7456778820477608,0.5142290379186694
1499369113823,-0.4502632181277182,0.746166170748455,0.5161821927214465
1499369113839,-0.4523384451056689,0.7465323872739758,0.5154497596704051
1499369113855,-0.45123979552910676,0.7459220263981079,0.5147173266193636
1499369113871,-0.4509956511787596,0.7459220263981079,0.5158159761959258
1499369113887,-0.4498970016021975,0.7465323872739758,0.5150835431448844
1499369113903,-0.4497749294270239,0.7468986037994965,0.5148393987945372
1499369113919,-0.45087357900358604,0.7464103150988022,0.5141069657434958
1499369113935,-0.45050736247806533,0.746166170748455,0.5130083161669337
1499369113951,-0.4514839398794539,0.7464103150988022,0.5145952544441901
1499369113967,-0.45087357900358604,0.7467765316243229,0.5153276874952315
1499369113983,-0.45038529030289176,0.7467765316243229,0.5132524605172808
1499369113999,-0.44916456855115605,0.746166170748455,0.5142290379186694
1499369114015,-0.45050736247806533,0.7448233768215458,0.5111772335393301
1499369114031,-0.4518501564049746,0.744457160296025,0.5138628213931486
1499369114047,-0.45136186770428033,0.7459220263981079,0.5138628213931486
1499369114063,-0.4506294346532389,0.7460440985732815,0.5134966048676279
1499369114079,-0.4522163729304953,0.7459220263981079,0.5139848935683222
1499369114095,-0.4518501564049746,0.7451895933470665,0.5134966048676279
1499369114111,-0.4527046616311896,0.7460440985732815,0.5120317387655451
1499369114127,-0.4531929503318839,0.7457999542229343,0.5133745326924544
1499369114143,-0.4498970016021975,0.7448233768215458,0.5153276874952315
1499369114159,-0.4476997024490732,0.746166170748455,0.5120317387655451
1499369114175,-0.44794384679942034,0.7471427481498436,0.5142290379186694
1499369114191,-0.4481879911497675,0.746166170748455,0.5130083161669337
1499369114207,-0.4506294346532389,0.7449454489967193,0.5171587701228351
1499369114223,-0.45136186770428033,0.7467765316243229,0.5160601205462729
1499369114239,-0.45258258945601604,0.7481193255512322,0.5143511100938429
1499369114255,-0.45087357900358604,0.7471427481498436,0.5144731822690165
1499369114271,-0.4497749294270239,0.7472648203250172,0.5174029144731822
1499369114287,-0.44953078507667676,0.746166170748455,0.5166704814221408
1499369114303,-0.4502632181277182,0.7464103150988022,0.5145952544441901
1499369114319,-0.44879835202563534,0.7442130159456779,0.5158159761959258
1499369114335,-0.4498970016021975,0.7443350881208515,0.5148393987945372
1499369114351,-0.4523384451056689,0.7451895933470665,0.5159380483710994
1499369114367,-0.4530708781567103,0.7454337376974136,0.5144731822690165
1499369114383,-0.45258258945601604,0.7466544594491493,0.5139848935683222
1499369114399,-0.4518501564049746,0.7466544594491493,0.5130083161669337
1499369114415,-0.45246051728084247,0.7456778820477608,0.5123979552910658
1499369114430,-0.4498970016021975,0.7465323872739758,0.5134966048676279
1499369114446,-0.4501411459525446,0.7464103150988022,0.5112993057145037
1499369114462,-0.4501411459525446,0.74702067597467,0.5119096665903715
1499369114478,-0.4507515068284125,0.7462882429236286,0.5143511100938429
1499369114494,-0.45050736247806533,0.7473868925001907,0.5159380483710994
1499369114510,-0.4509956511787596,0.7473868925001907,0.5121538109407187
1499369114526,-0.45209430075532175,0.7466544594491493,0.5128862439917601
1499369114542,-0.4527046616311896,0.746166170748455,0.5144731822690165
1499369114558,-0.45087357900358604,0.7466544594491493,0.5156939040207522
1499369114574,-0.4501411459525446,0.7464103150988022,0.5148393987945372
1499369114590,-0.4481879911497675,0.74531166552224,0.5152056153200579
1499369114606,-0.4481879911497675,0.7460440985732815,0.5143511100938429
1499369114622,-0.4518501564049746,0.7439688715953308,0.5137407492179751
1499369114638,-0.4498970016021975,0.746166170748455,0.5160601205462729
1499369114654,-0.4481879911497675,0.7454337376974136,0.5170366979476615
1499369114670,-0.44965285725185034,0.7450675211718929,0.5144731822690165
1499369114686,-0.45123979552910676,0.746166170748455,0.5150835431448844
1499369114702,-0.4540474555580989,0.7437247272449836,0.5131303883421072
1499369114718,-0.4535591668574046,0.7466544594491493,0.5123979552910658
1499369114734,-0.4527046616311896,0.74702067597467,0.5126420996414129
1499369114750,-0.45038529030289176,0.746166170748455,0.5153276874952315
1499369114766,-0.44794384679942034,0.7476310368505379,0.5149614709697108
1499369114782,-0.44953078507667676,0.7471427481498436,0.5143511100938429
1499369114798,-0.44953078507667676,0.7466544594491493,0.5152056153200579
1499369114814,-0.45160601205462747,0.7451895933470665,0.5150835431448844
1499369114830,-0.4528267338063632,0.7464103150988022,0.5145952544441901
1499369114846,-0.45087357900358604,0.7460440985732815,0.5153276874952315
1499369114862,-0.4507515068284125,0.7451895933470665,0.5131303883421072
1499369114878,-0.45136186770428033,0.7462882429236286,0.5150835431448844
1499369114894,-0.4489204242008089,0.7450675211718929,0.5167925535973144
1499369114910,-0.4476997024490732,0.7443350881208515,0.5161821927214465
1499369114926,-0.4492866407263296,0.7459220263981079,0.5141069657434958
1499369114942,-0.45001907377737105,0.7460440985732815,0.5139848935683222
1499369114958,-0.4502632181277182,0.7442130159456779,0.5134966048676279
1499369114974,-0.45172808422980104,0.7451895933470665,0.5144731822690165
1499369114990,-0.45087357900358604,0.7459220263981079,0.5133745326924544
1499369115006,-0.4497749294270239,0.746166170748455,0.5154497596704051
1499369115022,-0.45001907377737105,0.7471427481498436,0.5139848935683222
1499369115038,-0.44953078507667676,0.7466544594491493,0.5144731822690165
1499369115054,-0.4476997024490732,0.7471427481498436,0.5149614709697108
1499369115070,-0.4490424963759825,0.7462882429236286,0.5145952544441901
1499369115086,-0.4519722285801482,0.7475089646753643,0.5144731822690165
1499369115102,-0.45343709468223103,0.7475089646753643,0.5137407492179751
1499369115118,-0.4530708781567103,0.7455558098725872,0.5154497596704051
1499369115134,-0.4518501564049746,0.7456778820477608,0.5156939040207522
1499369115150,-0.4501411459525446,0.7473868925001907,0.5143511100938429
1499369115166,-0.4492866407263296,0.7460440985732815,0.5149614709697108
1499369115182,-0.44879835202563534,0.7460440985732815,0.5143511100938429
1499369115198,-0.45136186770428033,0.7467765316243229,0.5148393987945372
1499369115214,-0.44916456855115605,0.7459220263981079,0.5154497596704051
1499369115230,-0.4498970016021975,0.7454337376974136,0.5119096665903715
1499369115246,-0.45172808422980104,0.7451895933470665,0.5137407492179751
1499369115262,-0.45294880598153675,0.746166170748455,0.5172808422980086
1499369115278,-0.4530708781567103,0.74531166552224,0.5125200274662394
1499369115294,-0.4528267338063632,0.7455558098725872,0.5143511100938429
1499369115310,-0.4523384451056689,0.7456778820477608,0.5132524605172808
1499369115326,-0.4480659189745939,0.7447013046463722,0.5122758831158922
1499369115342,-0.44831006332494105,0.746166170748455,0.5126420996414129
1499369115358,-0.44794384679942034,0.7465323872739758,0.5147173266193636
1499369115374,-0.4509956511787596,0.7473868925001907,0.5174029144731822
1499369115390,-0.4511177233539332,0.7475089646753643,0.5152056153200579
1499369115406,-0.4528267338063632,0.7456778820477608,0.5148393987945372
1499369115422,-0.4530708781567103,0.7472648203250172,0.5131303883421072
1499369115438,-0.45246051728084247,0.7457999542229343,0.5145952544441901
1499369115454,-0.4501411459525446,0.7455558098725872,0.5145952544441901
1499369115470,-0.4484321355001146,0.7439688715953308,0.5164263370717936
1499369115486,-0.4489204242008089,0.7467765316243229,0.5148393987945372
1499369115502,-0.45087357900358604,0.7459220263981079,0.5144731822690165
1499369115518,-0.45160601205462747,0.7467765316243229,0.5154497596704051
1499369115534,-0.4540474555580989,0.7465323872739758,0.5149614709697108
1499369115550,-0.4536812390325782,0.7465323872739758,0.5136186770428015
1499369115566,-0.45380331120775175,0.7462882429236286,0.5145952544441901
1499369115582,-0.4514839398794539,0.7459220263981079,0.5143511100938429
1499369115598,-0.4501411459525446,0.746166170748455,0.5167925535973144
1499369115614,-0.4489204242008089,0.7473868925001907,0.5159380483710994
1499369115630,-0.4497749294270239,0.7455558098725872,0.5128862439917601
1499369115646,-0.45123979552910676,0.7451895933470665,0.5119096665903715
1499369115662,-0.45038529030289176,0.7473868925001907,0.5144731822690165
1499369115678,-0.4518501564049746,0.7459220263981079,0.5138628213931486
1499369115694,-0.4527046616311896,0.74531166552224,0.5153276874952315
1499369115710,-0.4501411459525446,0.7454337376974136,0.5153276874952315
1499369115725,-0.45087357900358604,0.7475089646753643,0.5143511100938429
1499369115741,-0.45050736247806533,0.7467765316243229,0.5169146257724879
1499369115757,-0.45160601205462747,0.7462882429236286,0.5150835431448844
1499369115773,-0.4511177233539332,0.7473868925001907,0.5144731822690165
1499369115789,-0.4527046616311896,0.7472648203250172,0.5130083161669337
1499369115805,-0.45160601205462747,0.7455558098725872,0.5130083161669337
1499369115821,-0.45001907377737105,0.7448233768215458,0.5149614709697108
1499369115837,-0.4498970016021975,0.7455558098725872,0.5131303883421072
1499369115853,-0.4531929503318839,0.74531166552224,0.5155718318455786
1499369115869,-0.4544136720836196,0.7450675211718929,0.5156939040207522
1499369115885,-0.45416952773327246,0.7482413977264057,0.510933089188983
1499369115901,-0.4507515068284125,0.7464103150988022,0.5139848935683222
1499369115917,-0.4497749294270239,0.7454337376974136,0.5133745326924544
1499369115933,-0.44867627985046177,0.7464103150988022,0.5121538109407187
1499369115949,-0.4489204242008089,0.7459220263981079,0.5141069657434958
1499369115965,-0.45050736247806533,0.7468986037994965,0.5156939040207522
1499369115981,-0.4494087129015032,0.7459220263981079,0.5156939040207522
1499369115997,-0.4506294346532389,0.7459220263981079,0.5150835431448844
1499369116013,-0.4523384451056689,0.747875181200885,0.5136186770428015
1499369116029,-0.4511177233539332,0.7455558098725872,0.5137407492179751
1499369116045,-0.45050736247806533,0.74702067597467,0.5160601205462729
1499369116061,-0.4497749294270239,0.7451895933470665,0.5126420996414129
1499369116077,-0.4509956511787596,0.7462882429236286,0.5147173266193636
1499369116093,-0.45246051728084247,0.7475089646753643,0.5149614709697108
1499369116109,-0.45294880598153675,0.7476310368505379,0.5128862439917601
1499369116125,-0.45416952773327246,0.7471427481498436,0.5150835431448844
1499369116141,-0.4519722285801482,0.7471427481498436,0.5137407492179751
1499369116157,-0.45001907377737105,0.7443350881208515,0.5141069657434958
1499369116173,-0.44745555809872606,0.744457160296025,0.5143511100938429
1499369116189,-0.44757763027389963,0.74531166552224,0.5167925535973144
1499369116205,-0.4469672693980318,0.744457160296025,0.5158159761959258
1499369116221,-0.4472114137483789,0.7476310368505379,0.5128862439917601
1499369116237,-0.44831006332494105,0.7476310368505379,0.5160601205462729
1499369116253,-0.4514839398794539,0.7459220263981079,0.5155718318455786
1499369116269,-0.45343709468223103,0.7490959029526207,0.5134966048676279
1499369116285,-0.4530708781567103,0.7465323872739758,0.5127641718165865
1499369116301,-0.4509956511787596,0.74702067597467,0.5110551613641565
1499369116317,-0.4489204242008089,0.74702067597467,0.5138628213931486
1499369116333,-0.4480659189745939,0.7467765316243229,0.5143511100938429
1499369116349,-0.4497749294270239,0.74702067597467,0.5134966048676279
1499369116365,-0.45050736247806533,0.7475089646753643,0.5147173266193636
1499369116381,-0.4502632181277182,0.7459220263981079,0.5142290379186694
1499369116397,-0.4506294346532389,0.7454337376974136,0.5132524605172808
1499369116413,-0.4501411459525446,0.7449454489967193,0.5131303883421072
1499369116429,-0.4492866407263296,0.7459220263981079,0.5145952544441901
1499369116445,-0.4492866407263296,0.7471427481498436,0.5160601205462729
1499369116461,-0.4518501564049746,0.7460440985732815,0.5153276874952315
1499369116477,-0.44879835202563534,0.7464103150988022,0.5160601205462729
1499369116493,-0.44916456855115605,0.7465323872739758,0.5136186770428015
1499369116509,-0.44867627985046177,0.74702067597467,0.5134966048676279
1499369116525,-0.4494087129015032,0.7475089646753643,0.5147173266193636
1499369116541,-0.4506294346532389,0.746166170748455,0.5134966048676279
1499369116557,-0.45258258945601604,0.7449454489967193,0.5161821927214465
1499369116573,-0.45136186770428033,0.7466544594491493,0.5152056153200579
1499369116589,-0.45136186770428033,0.7467765316243229,0.5152056153200579
1499369116605,-0.4511177233539332,0.7486076142519265,0.5150835431448844
1499369116621,-0.4507515068284125,0.7457999542229343,0.5136186770428015
1499369116637,-0.44953078507667676,0.74531166552224,0.5131303883421072
1499369116653,-0.44953078507667676,0.7449454489967193,0.5120317387655451
1499369116669,-0.45087357900358604,0.7448233768215458,0.5159380483710994
1499369116685,-0.45050736247806533,0.7454337376974136,0.5132524605172808
1499369116701,-0.45209430075532175,0.7448233768215458,0.5115434500648508
1499369116717,-0.4511177233539332,0.7450675211718929,0.5144731822690165
1499369116733,-0.4509956511787596,0.7442130159456779,0.5139848935683222
1499369116749,-0.45136186770428033,0.746166170748455,0.5149614709697108
1499369116765,-0.44953078507667676,0.7459220263981079,0.5156939040207522
1499369116781,-0.45136186770428033,0.7471427481498436,0.5141069657434958
1499369116797,-0.4494087129015032,0.7460440985732815,0.5159380483710994
1499369116813,-0.45123979552910676,0.7475089646753643,0.5130083161669337
1499369116829,-0.4530708781567103,0.74531166552224,0.5170366979476615
1499369116845,-0.4514839398794539,0.74531166552224,0.5159380483710994
1499369116861,-0.45246051728084247,0.7466544594491493,0.5145952544441901
1499369116877,-0.4509956511787596,0.7471427481498436,0.5158159761959258
1499369116893,-0.45001907377737105,0.7471427481498436,0.5161821927214465
1499369116909,-0.4502632181277182,0.7473868925001907,0.5150835431448844
1499369116925,-0.45001907377737105,0.7462882429236286,0.5144731822690165
1499369116941,-0.45123979552910676,0.7477531090257115,0.5131303883421072
1499369116956,-0.4497749294270239,0.7472648203250172,0.5127641718165865
1499369116972,-0.45001907377737105,0.7462882429236286,0.5149614709697108
1499369116988,-0.44953078507667676,0.7482413977264057,0.5164263370717936
1499369117004,-0.4498970016021975,0.7464103150988022,0.5164263370717936
1499369117020,-0.4489204242008089,0.7462882429236286,0.5153276874952315
1499369117036,-0.4497749294270239,0.744457160296025,0.5163042648966201
1499369117052,-0.4509956511787596,0.7455558098725872,0.5174029144731822
1499369117068,-0.4518501564049746,0.7460440985732815,0.5136186770428015
1499369117084,-0.45294880598153675,0.7457999542229343,0.5170366979476615
1499369117100,-0.44916456855115605,0.7473868925001907,0.5141069657434958
1499369117116,-0.44745555809872606,0.7482413977264057,0.5148393987945372
1499369117132,-0.4456244754711225,0.7477531090257115,0.5138628213931486
1499369117148,-0.4473334859235525,0.74702067597467,0.5144731822690165
1499369117164,-0.44953078507667676,0.7465323872739758,0.5149614709697108
1499369117180,-0.4490424963759825,0.7450675211718929,0.5170366979476615
1499369117196,-0.4507515068284125,0.746166170748455,0.5170366979476615
1499369117212,-0.4498970016021975,0.7472648203250172,0.5143511100938429
1499369117228,-0.45038529030289176,0.746166170748455,0.5153276874952315
1499369117244,-0.4484321355001146,0.7457999542229343,0.5155718318455786
1499369117260,-0.4481879911497675,0.7454337376974136,0.5170366979476615
1499369117276,-0.44794384679942034,0.746166170748455,0.5149614709697108
1499369117292,-0.45038529030289176,0.7443350881208515,0.5141069657434958
1499369117308,-0.4530708781567103,0.7460440985732815,0.5156939040207522
1499369117324,-0.45258258945601604,0.7466544594491493,0.5137407492179751
1499369117340,-0.4509956511787596,0.7459220263981079,0.5161821927214465
1499369117356,-0.44965285725185034,0.7467765316243229,0.5150835431448844
1499369117372,-0.4485542076752882,0.7449454489967193,0.5160601205462729
1499369117388,-0.4473334859235525,0.7457999542229343,0.5150835431448844
1499369117404,-0.4494087129015032,0.7459220263981079,0.5159380483710994
1499369117420,-0.45038529030289176,0.7473868925001907,0.5153276874952315
1499369117436,-0.4519722285801482,0.7464103150988022,0.5176470588235293
1499369117452,-0.45209430075532175,0.7462882429236286,0.5148393987945372
1499369117468,-0.45038529030289176,0.7460440985732815,0.5155718318455786
1499369117484,-0.4497749294270239,0.7454337376974136,0.5150835431448844
1499369117500,-0.4480659189745939,0.7466544594491493,0.5147173266193636
1499369117516,-0.4468451972228582,0.7460440985732815,0.5176470588235293
1499369117532,-0.4463569085221639,0.74702067597467,0.5159380483710994
1499369117548,-0.4485542076752882,0.7455558098725872,0.5137407492179751
1499369117564,-0.4511177233539332,0.7456778820477608,0.5159380483710994
1499369117580,-0.4528267338063632,0.7467765316243229,0.5176470588235293
1499369117596,-0.4509956511787596,0.7467765316243229,0.5167925535973144
1499369117612,-0.4497749294270239,0.7451895933470665,0.5161821927214465
1499369117628,-0.4494087129015032,0.7457999542229343,0.5148393987945372
1499369117644,-0.4498970016021975,0.7462882429236286,0.5164263370717936
1499369117660,-0.4511177233539332,0.746166170748455,0.5170366979476615
1499369117676,-0.4485542076752882,0.7456778820477608,0.5156939040207522
1499369117692,-0.4492866407263296,0.746166170748455,0.5163042648966201
1499369117708,-0.44965285725185034,0.7472648203250172,0.5159380483710994
1499369117724,-0.4501411459525446,0.7468986037994965,0.5169146257724879
1499369117740,-0.45123979552910676,0.7468986037994965,0.5187457084000915
1499369117756,-0.4511177233539332,0.7459220263981079,0.5148393987945372
1499369117772,-0.44965285725185034,0.746166170748455,0.5155718318455786
1499369117788,-0.4494087129015032,0.7459220263981079,0.5176470588235293
1499369117804,-0.4489204242008089,0.747875181200885,0.5169146257724879
1499369117820,-0.44965285725185034,0.7465323872739758,0.5153276874952315
1499369117836,-0.4492866407263296,0.7464103150988022,0.5176470588235293
1499369117852,-0.4509956511787596,0.7460440985732815,0.5154497596704051
1499369117868,-0.4507515068284125,0.7462882429236286,0.5166704814221408
1499369117884,-0.45087357900358604,0.7454337376974136,0.5153276874952315
1499369117900,-0.45123979552910676,0.7455558098725872,0.5171587701228351
1499369117916,-0.45123979552910676,0.7462882429236286,0.5141069657434958
1499369117932,-0.4498970016021975,0.7454337376974136,0.5170366979476615
1499369117948,-0.4490424963759825,0.7451895933470665,0.5150835431448844
1499369117964,-0.44879835202563534,0.7451895933470665,0.5166704814221408
1499369117980,-0.44965285725185034,0.7465323872739758,0.5153276874952315
1499369117996,-0.4509956511787596,0.7462882429236286,0.5172808422980086
1499369118012,-0.4511177233539332,0.7457999542229343,0.5148393987945372
1499369118028,-0.4506294346532389,0.7456778820477608,0.5152056153200579
1499369118044,-0.4514839398794539,0.7456778820477608,0.5152056153200579
1499369118060,-0.4494087129015032,0.7456778820477608,0.5159380483710994
1499369118076,-0.4492866407263296,0.74702067597467,0.5165484092469672
1499369118092,-0.4498970016021975,0.7483634699015793,0.5150835431448844
1499369118108,-0.4480659189745939,0.7462882429236286,0.5159380483710994
1499369118124,-0.4472114137483789,0.7472648203250172,0.5161821927214465
1499369118140,-0.44916456855115605,0.7462882429236286,0.5171587701228351
1499369118156,-0.4523384451056689,0.7477531090257115,0.5160601205462729
1499369118172,-0.4497749294270239,0.7487296864271,0.5158159761959258
1499369118187,-0.4497749294270239,0.7473868925001907,0.5159380483710994
1499369118203,-0.4494087129015032,0.7450675211718929,0.5159380483710994
1499369118219,-0.4506294346532389,0.7471427481498436,0.5156939040207522
1499369118235,-0.4502632181277182,0.7443350881208515,0.5176470588235293
1499369118251,-0.4511177233539332,0.7473868925001907,0.5137407492179751
1499369118267,-0.4509956511787596,0.7462882429236286,0.5170366979476615
1499369118283,-0.4485542076752882,0.7465323872739758,0.5187457084000915
1499369118299,-0.44586861982146964,0.7468986037994965,0.5167925535973144
1499369118315,-0.44782177462424677,0.7464103150988022,0.5164263370717936
1499369118331,-0.45087357900358604,0.7475089646753643,0.5132524605172808
1499369118347,-0.4519722285801482,0.7467765316243229,0.5155718318455786
1499369118363,-0.45258258945601604,0.7468986037994965,0.5134966048676279
1499369118379,-0.4492866407263296,0.7482413977264057,0.5158159761959258
1499369118395,-0.44782177462424677,0.7459220263981079,0.5145952544441901
1499369118411,-0.4494087129015032,0.7467765316243229,0.5152056153200579
1499369118427,-0.4485542076752882,0.7467765316243229,0.5156939040207522
1499369118443,-0.4492866407263296,0.7473868925001907,0.5147173266193636
1499369118459,-0.4502632181277182,0.7473868925001907,0.5152056153200579
1499369118475,-0.4506294346532389,0.7459220263981079,0.5174029144731822
1499369118491,-0.45136186770428033,0.7455558098725872,0.5153276874952315
1499369118507,-0.4502632181277182,0.7457999542229343,0.5149614709697108
1499369118523,-0.4497749294270239,0.74531166552224,0.5164263370717936
1499369118539,-0.44867627985046177,0.7451895933470665,0.5171587701228351
1499369118555,-0.4480659189745939,0.7459220263981079,0.5166704814221408
1499369118571,-0.4489204242008089,0.7454337376974136,0.5174029144731822
1499369118587,-0.4485542076752882,0.7459220263981079,0.5159380483710994
1499369118603,-0.4501411459525446,0.7455558098725872,0.5144731822690165
1499369118619,-0.4501411459525446,0.7456778820477608,0.5153276874952315
1499369118635,-0.4509956511787596,0.7472648203250172,0.5141069657434958
1499369118651,-0.45123979552910676,0.7460440985732815,0.5156939040207522
1499369118667,-0.45001907377737105,0.7457999542229343,0.5136186770428015
1499369118683,-0.4485542076752882,0.74702067597467,0.5160601205462729
1499369118699,-0.44794384679942034,0.7483634699015793,0.5156939040207522
1499369118715,-0.4489204242008089,0.7473868925001907,0.5158159761959258
1499369118731,-0.4507515068284125,0.7466544594491493,0.5158159761959258
1499369118747,-0.45038529030289176,0.7482413977264057,0.5178912031738765
1499369118763,-0.4497749294270239,0.7488517586022736,0.5169146257724879
1499369118779,-0.44916456855115605,0.747875181200885,0.5160601205462729
1499369118795,-0.4469672693980318,0.746166170748455,0.5141069657434958
1499369118811,-0.45136186770428033,0.7449454489967193,0.5159380483710994
1499369118827,-0.4497749294270239,0.7445792324711986,0.5147173266193636
1499369118843,-0.45050736247806533,0.7432364385442893,0.5141069657434958
1499369118859,-0.4497749294270239,0.74360265506981,0.5139848935683222
1499369118875,-0.44916456855115605,0.746166170748455,0.5141069657434958
1499369118891,-0.44916456855115605,0.7460440985732815,0.5149614709697108
1499369118907,-0.45001907377737105,0.7442130159456779,0.5160601205462729
1499369118923,-0.44965285725185034,0.7451895933470665,0.5147173266193636
1499369118939,-0.45172808422980104,0.7459220263981079,0.5167925535973144
1499369118955,-0.45038529030289176,0.74531166552224,0.5183794918745708
1499369118971,-0.45050736247806533,0.747875181200885,0.5166704814221408
1499369118987,-0.4502632181277182,0.7482413977264057,0.5166704814221408
1499369119003,-0.4485542076752882,0.7476310368505379,0.5180132753490501
1499369119019,-0.4489204242008089,0.7475089646753643,0.5175249866483558
1499369119035,-0.4476997024490732,0.7462882429236286,0.5166704814221408
1499369119051,-0.4489204242008089,0.74702067597467,0.5154497596704051
1499369119067,-0.4501411459525446,0.7462882429236286,0.5153276874952315
1499369119083,-0.45160601205462747,0.746166170748455,0.5141069657434958
1499369119099,-0.4528267338063632,0.7459220263981079,0.5143511100938429
1499369119115,-0.45209430075532175,0.7448233768215458,0.5144731822690165
1499369119131,-0.4509956511787596,0.7448233768215458,0.5153276874952315
1499369119147,-0.4502632181277182,0.7466544594491493,0.5169146257724879
1499369119163,-0.4490424963759825,0.7450675211718929,0.5181353475242236
1499369119179,-0.44867627985046177,0.7456778820477608,0.5164263370717936
1499369119195,-0.4485542076752882,0.7464103150988022,0.5174029144731822
1499369119211,-0.4490424963759825,0.7472648203250172,0.5182574196993972
1499369119227,-0.44965285725185034,0.746166170748455,0.5156939040207522
1499369119243,-0.44831006332494105,0.7475089646753643,0.5139848935683222
1499369119259,-0.4507515068284125,0.7473868925001907,0.5167925535973144
1499369119275,-0.45050736247806533,0.7476310368505379,0.5165484092469672
1499369119291,-0.4489204242008089,0.7466544594491493,0.5155718318455786
1499369119307,-0.44953078507667676,0.74702067597467,0.5172808422980086
1499369119323,-0.45050736247806533,0.7457999542229343,0.5127641718165865
1499369119339,-0.4527046616311896,0.746166170748455,0.5155718318455786
1499369119355,-0.45160601205462747,0.74531166552224,0.5141069657434958
1499369119371,-0.4481879911497675,0.7454337376974136,0.5141069657434958
1499369119387,-0.4485542076752882,0.7468986037994965,0.5143511100938429
1499369119403,-0.4509956511787596,0.7473868925001907,0.5169146257724879
1499369119419,-0.4523384451056689,0.7468986037994965,0.5165484092469672
1499369119435,-0.4514839398794539,0.7455558098725872,0.5136186770428015
1499369119451,-0.44879835202563534,0.7459220263981079,0.5155718318455786
1499369119466,-0.44745555809872606,0.7466544594491493,0.5161821927214465
1499369119482,-0.4468451972228582,0.7462882429236286,0.5133745326924544
1499369119498,-0.4476997024490732,0.7455558098725872,0.5174029144731822
1499369119514,-0.4490424963759825,0.7462882429236286,0.5142290379186694
1499369119530,-0.4497749294270239,0.7456778820477608,0.5152056153200579
1499369119546,-0.4511177233539332,0.7462882429236286,0.5164263370717936
1499369119562,-0.4514839398794539,0.7454337376974136,0.5170366979476615
1499369119578,-0.4518501564049746,0.7447013046463722,0.5181353475242236
1499369119594,-0.4476997024490732,0.7456778820477608,0.5158159761959258
1499369119610,-0.4464789806973375,0.7471427481498436,0.5167925535973144
1499369119626,-0.44623483634699035,0.7468986037994965,0.5148393987945372
1499369119642,-0.4485542076752882,0.7451895933470665,0.5141069657434958
1499369119658,-0.45087357900358604,0.7468986037994965,0.5137407492179751
1499369119674,-0.4511177233539332,0.7455558098725872,0.5147173266193636
1499369119690,-0.4528267338063632,0.7457999542229343,0.5145952544441901
1499369119706,-0.45258258945601604,0.74531166552224,0.5161821927214465
1499369119722,-0.4497749294270239,0.7450675211718929,0.5149614709697108
1499369119738,-0.4469672693980318,0.7457999542229343,0.5155718318455786
1499369119754,-0.4492866407263296,0.7466544594491493,0.5153276874952315
1499369119770,-0.44782177462424677,0.7466544594491493,0.5149614709697108
1499369119786,-0.4489204242008089,0.7456778820477608,0.5156939040207522
1499369119802,-0.4498970016021975,0.746166170748455,0.5155718318455786
1499369119818,-0.4501411459525446,0.7468986037994965,0.5165484092469672
1499369119834,-0.4497749294270239,0.7462882429236286,0.5166704814221408
1499369119850,-0.4502632181277182,0.7477531090257115,0.5152056153200579
1499369119866,-0.4494087129015032,0.7457999542229343,0.5153276874952315
1499369119882,-0.44831006332494105,0.7455558098725872,0.5164263370717936
1499369119898,-0.4481879911497675,0.7467765316243229,0.5158159761959258
1499369119914,-0.4489204242008089,0.746166170748455,0.5152056153200579
1499369119930,-0.45123979552910676,0.747875181200885,0.5152056153200579
1499369119946,-0.45038529030289176,0.7481193255512322,0.5150835431448844
1499369119962,-0.4507515068284125,0.7462882429236286,0.5154497596704051
1499369119978,-0.4502632181277182,0.7459220263981079,0.5144731822690165
1499369119994,-0.4527046616311896,0.7459220263981079,0.5141069657434958
1499369120010,-0.45209430075532175,0.7467765316243229,0.5155718318455786
1499369120026,-0.4507515068284125,0.7465323872739758,0.5139848935683222
1499369120042,-0.4484321355001146,0.7462882429236286,0.5159380483710994
1499369120058,-0.4472114137483789,0.7466544594491493,0.5158159761959258
1499369120074,-0.44794384679942034,0.7445792324711986,0.5150835431448844
1499369120090,-0.44831006332494105,0.746166170748455,0.5155718318455786
1499369120106,-0.4484321355001146,0.7466544594491493,0.5174029144731822
1499369120122,-0.44953078507667676,0.7482413977264057,0.5191119249256122
1499369120138,-0.4494087129015032,0.7499504081788357,0.5153276874952315
1499369120154,-0.44916456855115605,0.7492179751277943,0.5194781414511329
1499369120170,-0.4501411459525446,0.7475089646753643,0.5171587701228351
1499369120186,-0.4506294346532389,0.7464103150988022,0.5172808422980086
1499369120202,-0.4497749294270239,0.7457999542229343,0.5169146257724879
1499369120218,-0.44953078507667676,0.7451895933470665,0.5172808422980086
1499369120234,-0.4497749294270239,0.7440909437705043,0.5158159761959258
1499369120250,-0.44782177462424677,0.7464103150988022,0.5138628213931486
1499369120266,-0.44953078507667676,0.7466544594491493,0.5145952544441901
1499369120282,-0.4509956511787596,0.7466544594491493,0.5153276874952315
1499369120298,-0.45136186770428033,0.7460440985732815,0.5134966048676279
1499369120314,-0.45160601205462747,0.7450675211718929,0.5156939040207522
1499369120330,-0.45136186770428033,0.7462882429236286,0.5137407492179751
1499369120346,-0.4527046616311896,0.7465323872739758,0.5138628213931486
1499369120362,-0.44916456855115605,0.746166170748455,0.5143511100938429
1499369120378,-0.4490424963759825,0.7462882429236286,0.5161821927214465
1499369120394,-0.44794384679942034,0.7465323872739758,0.5170366979476615
1499369120410,-0.4476997024490732,0.7443350881208515,0.5152056153200579
1499369120426,-0.4492866407263296,0.7454337376974136,0.5164263370717936
1499369120442,-0.4511177233539332,0.7479972533760586,0.5174029144731822
1499369120458,-0.4490424963759825,0.7462882429236286,0.5178912031738765
1499369120474,-0.4502632181277182,0.7477531090257115,0.5183794918745708
1499369120490,-0.45294880598153675,0.7457999542229343,0.5178912031738765
1499369120506,-0.4492866407263296,0.7477531090257115,0.5174029144731822
1499369120522,-0.4481879911497675,0.74531166552224,0.5156939040207522
1499369120538,-0.44623483634699035,0.746166170748455,0.5165484092469672
1499369120554,-0.44965285725185034,0.7450675211718929,0.5152056153200579
1499369120570,-0.45001907377737105,0.7449454489967193,0.5161821927214465
1499369120586,-0.45136186770428033,0.7460440985732815,0.5147173266193636
1499369120602,-0.4518501564049746,0.7477531090257115,0.5115434500648508
1499369120618,-0.4501411459525446,0.7466544594491493,0.5158159761959258
1499369120634,-0.44965285725185034,0.7473868925001907,0.5159380483710994
1499369120650,-0.4480659189745939,0.7448233768215458,0.5177691309987029
1499369120666,-0.44672312504768463,0.7443350881208515,0.5158159761959258
1499369120682,-0.4480659189745939,0.7440909437705043,0.5156939040207522
1499369120697,-0.44757763027389963,0.7449454489967193,0.5166704814221408
1499369120713,-0.44879835202563534,0.7477531090257115,0.5167925535973144
1499369120729,-0.4494087129015032,0.7465323872739758,0.5161821927214465
1499369120745,-0.4511177233539332,0.7466544594491493,0.5160601205462729
1499369120761,-0.45172808422980104,0.746166170748455,0.5187457084000915
1499369120777,-0.44953078507667676,0.7454337376974136,0.5148393987945372
1499369120793,-0.4494087129015032,0.7460440985732815,0.5159380483710994
1499369120809,-0.4484321355001146,0.7450675211718929,0.5172808422980086
1499369120825,-0.44745555809872606,0.7450675211718929,0.5145952544441901
1499369120841,-0.4484321355001146,0.7460440985732815,0.5148393987945372
1499369120857,-0.44916456855115605,0.7459220263981079,0.5158159761959258
1499369120873,-0.44965285725185034,0.7455558098725872,0.5141069657434958
1499369120889,-0.45123979552910676,0.746166170748455,0.5150835431448844
1499369120905,-0.45160601205462747,0.7465323872739758,0.5158159761959258
1499369120921,-0.45123979552910676,0.7468986037994965,0.5161821927214465
1499369120937,-0.44916456855115605,0.7464103150988022,0.5183794918745708
1499369120953,-0.44916456855115605,0.7466544594491493,0.5155718318455786
1499369120969,-0.4476997024490732,0.7456778820477608,0.5171587701228351
1499369120985,-0.4464789806973375,0.7460440985732815,0.5177691309987029
1499369121001,-0.44672312504768463,0.7460440985732815,0.5170366979476615
1499369121017,-0.4481879911497675,0.7460440985732815,0.5171587701228351
1499369121033,-0.44867627985046177,0.7451895933470665,0.5152056153200579
1499369121049,-0.45038529030289176,0.7455558098725872,0.5183794918745708
1499369121065,-0.4507515068284125,0.7449454489967193,0.5163042648966201
1499369121081,-0.4492866407263296,0.74702067597467,0.5170366979476615
1499369121097,-0.4492866407263296,0.7462882429236286,0.5178912031738765
1499369121113,-0.44916456855115605,0.7448233768215458,0.5153276874952315
1499369121129,-0.4502632181277182,0.7455558098725872,0.5163042648966201
1499369121145,-0.4497749294270239,0.7464103150988022,0.5164263370717936
1499369121161,-0.4507515068284125,0.7464103150988022,0.5182574196993972
1499369121177,-0.4501411459525446,0.7462882429236286,0.5172808422980086
1499369121193,-0.44916456855115605,0.74531166552224,0.5161821927214465
1499369121209,-0.44782177462424677,0.74702067597467,0.5175249866483558
1499369121225,-0.4476997024490732,0.7490959029526207,0.5174029144731822
1499369121241,-0.4463569085221639,0.7482413977264057,0.5189898527504386
1499369121257,-0.4472114137483789,0.7460440985732815,0.5158159761959258
1499369121273,-0.4481879911497675,0.7462882429236286,0.5165484092469672
1499369121289,-0.4502632181277182,0.7462882429236286,0.5180132753490501
1499369121305,-0.45209430075532175,0.7460440985732815,0.5155718318455786
1499369121321,-0.4523384451056689,0.7462882429236286,0.5121538109407187
1499369121337,-0.45087357900358604,0.7443350881208515,0.5147173266193636
1499369121353,-0.4494087129015032,0.7457999542229343,0.5165484092469672
1499369121369,-0.44831006332494105,0.74531166552224,0.5149614709697108
1499369121385,-0.4497749294270239,0.744457160296025,0.5158159761959258
1499369121401,-0.45172808422980104,0.74360265506981,0.5139848935683222
1499369121417,-0.4507515068284125,0.7449454489967193,0.5165484092469672
1499369121433,-0.4527046616311896,0.7450675211718929,0.5175249866483558
1499369121449,-0.4498970016021975,0.7450675211718929,0.5164263370717936
1499369121465,-0.4485542076752882,0.746166170748455,0.5178912031738765
1499369121481,-0.44623483634699035,0.7468986037994965,0.5167925535973144
1499369121497,-0.44794384679942034,0.7468986037994965,0.5185015640497443
1499369121513,-0.4485542076752882,0.7471427481498436,0.5189898527504386
1499369121529,-0.4502632181277182,0.7462882429236286,0.5155718318455786
1499369121545,-0.45123979552910676,0.7462882429236286,0.5174029144731822
1499369121561,-0.45038529030289176,0.7450675211718929,0.5171587701228351
1499369121577,-0.4498970016021975,0.7472648203250172,0.5120317387655451
1499369121593,-0.44745555809872606,0.7449454489967193,0.5156939040207522
1499369121609,-0.44879835202563534,0.7462882429236286,0.5159380483710994
1499369121625,-0.44879835202563534,0.7447013046463722,0.5137407492179751
1499369121641,-0.44879835202563534,0.7450675211718929,0.5152056153200579
1499369121657,-0.4494087129015032,0.7460440985732815,0.5154497596704051
1499369121673,-0.45038529030289176,0.746166170748455,0.5148393987945372
1499369121689,-0.45294880598153675,0.7457999542229343,0.5155718318455786
1499369121705,-0.45172808422980104,0.744457160296025,0.5166704814221408
1499369121721,-0.4498970016021975,0.7476310368505379,0.5139848935683222
1499369121737,-0.4498970016021975,0.74702067597467,0.5165484092469672
1499369121753,-0.44794384679942034,0.7459220263981079,0.5158159761959258
1499369121769,-0.4463569085221639,0.7454337376974136,0.5134966048676279
1499369121785,-0.44501411459525464,0.7449454489967193,0.5155718318455786
1499369121801,-0.4480659189745939,0.7459220263981079,0.5158159761959258
1499369121817,-0.45209430075532175,0.746166170748455,0.5165484092469672
1499369121833,-0.45209430075532175,0.74702067597467,0.5189898527504386
1499369121849,-0.45172808422980104,0.7467765316243229,0.5167925535973144
1499369121865,-0.45087357900358604,0.7482413977264057,0.5154497596704051
1499369121881,-0.44916456855115605,0.7459220263981079,0.5174029144731822
1499369121897,-0.4481879911497675,0.7457999542229343,0.5149614709697108
1499369121913,-0.44794384679942034,0.7467765316243229,0.5174029144731822
1499369121929,-0.44745555809872606,0.7456778820477608,0.5174029144731822
1499369121945,-0.4490424963759825,0.7465323872739758,0.5152056153200579
1499369121960,-0.44916456855115605,0.7483634699015793,0.5175249866483558
1499369121976,-0.4518501564049746,0.7472648203250172,0.5186236362249179
1499369121992,-0.4523384451056689,0.7457999542229343,0.5171587701228351
1499369122008,-0.4518501564049746,0.7442130159456779,0.5152056153200579
1499369122024,-0.45038529030289176,0.7451895933470665,0.5167925535973144
1499369122040,-0.45038529030289176,0.7459220263981079,0.5143511100938429
1499369122056,-0.4481879911497675,0.7442130159456779,0.5159380483710994
1499369122072,-0.44708934157320535,0.7456778820477608,0.5171587701228351
1499369122088,-0.44757763027389963,0.7464103150988022,0.5145952544441901
1499369122104,-0.4494087129015032,0.7465323872739758,0.5144731822690165
1499369122120,-0.4501411459525446,0.74531166552224,0.5165484092469672
1499369122136,-0.4531929503318839,0.7459220263981079,0.5169146257724879
1499369122152,-0.4507515068284125,0.7456778820477608,0.5186236362249179
1499369122168,-0.4497749294270239,0.74531166552224,0.5172808422980086
1499369122184,-0.4485542076752882,0.7455558098725872,0.5169146257724879
1499369122200,-0.4480659189745939,0.7464103150988022,0.5164263370717936
1499369122216,-0.44831006332494105,0.7442130159456779,0.5148393987945372
1499369122232,-0.4480659189745939,0.7456778820477608,0.5165484092469672
1499369122248,-0.44708934157320535,0.7451895933470665,0.5139848935683222
1499369122264,-0.4492866407263296,0.7449454489967193,0.5192339971007858
1499369122280,-0.4519722285801482,0.7449454489967193,0.5171587701228351
1499369122296,-0.4527046616311896,0.7468986037994965,0.5167925535973144
1499369122312,-0.45087357900358604,0.7456778820477608,0.5153276874952315
1499369122328,-0.44916456855115605,0.7454337376974136,0.5159380483710994
1499369122344,-0.4485542076752882,0.746166170748455,0.5153276874952315
1499369122360,-0.44586861982146964,0.7457999542229343,0.5154497596704051
1499369122376,-0.4459906919966432,0.7448233768215458,0.5165484092469672
1499369122392,-0.44782177462424677,0.7450675211718929,0.5153276874952315
1499369122408,-0.44965285725185034,0.7448233768215458,0.5183794918745708
1499369122424,-0.45087357900358604,0.7457999542229343,0.5149614709697108
1499369122440,-0.45172808422980104,0.7473868925001907,0.5164263370717936
1499369122456,-0.45038529030289176,0.7468986037994965,0.5166704814221408
1499369122472,-0.44831006332494105,0.7450675211718929,0.5172808422980086
1499369122488,-0.4476997024490732,0.7457999542229343,0.5165484092469672
1499369122504,-0.44867627985046177,0.74360265506981,0.5158159761959258
1499369122520,-0.4469672693980318,0.7455558098725872,0.5186236362249179
1499369122536,-0.45001907377737105,0.7462882429236286,0.5175249866483558
1499369122552,-0.4518501564049746,0.7450675211718929,0.5150835431448844
1499369122568,-0.45246051728084247,0.7451895933470665,0.5158159761959258
1499369122584,-0.4522163729304953,0.74531166552224,0.5160601205462729
1499369122600,-0.44953078507667676,0.7462882429236286,0.5159380483710994
1499369122616,-0.4480659189745939,0.7466544594491493,0.5144731822690165
1499369122632,-0.4469672693980318,0.7456778820477608,0.5169146257724879
1499369122648,-0.4468451972228582,0.7466544594491493,0.5153276874952315
1499369122664,-0.44916456855115605,0.7476310368505379,0.5159380483710994
1499369122680,-0.45087357900358604,0.7457999542229343,0.5154497596704051
1499369122696,-0.45050736247806533,0.7464103150988022,0.5160601205462729
1499369122712,-0.4497749294270239,0.7455558098725872,0.5175249866483558
1499369122728,-0.44757763027389963,0.7459220263981079,0.5180132753490501
1499369122744,-0.4469672693980318,0.7456778820477608,0.5174029144731822
1499369122760,-0.44757763027389963,0.7462882429236286,0.5164263370717936
1499369122776,-0.44953078507667676,0.7454337376974136,0.5154497596704051
1499369122792,-0.45172808422980104,0.744457160296025,0.5149614709697108
1499369122808,-0.4523384451056689,0.7462882429236286,0.5149614709697108
1499369122824,-0.4506294346532389,0.7457999542229343,0.5177691309987029
1499369122840,-0.44757763027389963,0.7468986037994965,0.5194781414511329
1499369122856,-0.4469672693980318,0.7466544594491493,0.5180132753490501
1499369122872,-0.4502632181277182,0.7460440985732815,0.5156939040207522
1499369122888,-0.4506294346532389,0.7464103150988022,0.5165484092469672
1499369122904,-0.45258258945601604,0.7456778820477608,0.5163042648966201
1499369122920,-0.44953078507667676,0.7451895933470665,0.5167925535973144
1499369122936,-0.4489204242008089,0.7473868925001907,0.5159380483710994
1499369122952,-0.4485542076752882,0.74702067597467,0.5158159761959258
1499369122968,-0.4484321355001146,0.7462882429236286,0.5171587701228351
1499369122984,-0.45050736247806533,0.7450675211718929,0.5152056153200579
1499369123000,-0.45001907377737105,0.7454337376974136,0.5153276874952315
1499369123016,-0.45050736247806533,0.7471427481498436,0.5161821927214465
1499369123032,-0.4502632181277182,0.7460440985732815,0.5171587701228351
1499369123048,-0.4492866407263296,0.7454337376974136,0.5188677805752651
1499369123064,-0.44831006332494105,0.7459220263981079,0.5175249866483558
1499369123080,-0.44831006332494105,0.7468986037994965,0.5181353475242236
1499369123096,-0.44879835202563534,0.74702067597467,0.5187457084000915
1499369123112,-0.4494087129015032,0.7460440985732815,0.5171587701228351
1499369123128,-0.44965285725185034,0.7454337376974136,0.5165484092469672
1499369123144,-0.4497749294270239,0.7451895933470665,0.5126420996414129
1499369123160,-0.4497749294270239,0.7454337376974136,0.5163042648966201
1499369123176,-0.44831006332494105,0.7450675211718929,0.5134966048676279
1499369123192,-0.4480659189745939,0.7459220263981079,0.5152056153200579
1499369123208,-0.44782177462424677,0.74702067597467,0.5164263370717936
1499369123224,-0.4480659189745939,0.7455558098725872,0.5156939040207522
1499369123239,-0.45136186770428033,0.7457999542229343,0.5185015640497443
1499369123255,-0.45038529030289176,0.7455558098725872,0.5153276874952315
1499369123271,-0.4502632181277182,0.74531166552224,0.5158159761959258
1499369123287,-0.4485542076752882,0.7466544594491493,0.5160601205462729
1499369123303,-0.44672312504768463,0.7447013046463722,0.5161821927214465
1499369123319,-0.4468451972228582,0.7460440985732815,0.5158159761959258
1499369123335,-0.4456244754711225,0.7472648203250172,0.5160601205462729
1499369123351,-0.4463569085221639,0.7468986037994965,0.5166704814221408
1499369123367,-0.4494087129015032,0.7464103150988022,0.5172808422980086
1499369123383,-0.4518501564049746,0.7462882429236286,0.5163042648966201
1499369123399,-0.4498970016021975,0.74702067597467,0.5154497596704051
1499369123415,-0.44916456855115605,0.7460440985732815,0.5152056153200579
1499369123431,-0.4480659189745939,0.7456778820477608,0.5169146257724879
1499369123447,-0.44586861982146964,0.7449454489967193,0.5141069657434958
1499369123463,-0.4468451972228582,0.7462882429236286,0.5160601205462729
1499369123479,-0.4485542076752882,0.7464103150988022,0.5143511100938429
1499369123495,-0.4484321355001146,0.7475089646753643,0.5169146257724879
1499369123511,-0.44965285725185034,0.7455558098725872,0.5175249866483558
1499369123527,-0.4497749294270239,0.7462882429236286,0.5150835431448844
1499369123543,-0.44782177462424677,0.7459220263981079,0.5185015640497443
1499369123559,-0.44708934157320535,0.7456778820477608,0.5166704814221408
1499369123575,-0.4463569085221639,0.746166170748455,0.5136186770428015
1499369123591,-0.44916456855115605,0.7447013046463722,0.5150835431448844
1499369123607,-0.44831006332494105,0.746166170748455,0.5164263370717936
1499369123623,-0.4489204242008089,0.74531166552224,0.5155718318455786
1499369123639,-0.45038529030289176,0.7445792324711986,0.5189898527504386
1499369123655,-0.4484321355001146,0.7464103150988022,0.5167925535973144
1499369123671,-0.44867627985046177,0.7464103150988022,0.5160601205462729
1499369123687,-0.4481879911497675,0.7460440985732815,0.5172808422980086
1499369123703,-0.44879835202563534,0.7479972533760586,0.5159380483710994
1499369123719,-0.4484321355001146,0.7459220263981079,0.5153276874952315
1499369123735,-0.45001907377737105,0.7454337376974136,0.5156939040207522
1499369123751,-0.45038529030289176,0.7451895933470665,0.5164263370717936
1499369123767,-0.4494087129015032,0.7460440985732815,0.5156939040207522
1499369123783,-0.44916456855115605,0.7464103150988022,0.5158159761959258
1499369123799,-0.4472114137483789,0.7456778820477608,0.5171587701228351
1499369123815,-0.44782177462424677,0.7457999542229343,0.5172808422980086
1499369123831,-0.4485542076752882,0.7451895933470665,0.5174029144731822
1499369123847,-0.4489204242008089,0.7451895933470665,0.5152056153200579
1499369123863,-0.4484321355001146,0.7473868925001907,0.5176470588235293
1499369123879,-0.44953078507667676,0.7451895933470665,0.5186236362249179
1499369123895,-0.4481879911497675,0.746166170748455,0.5174029144731822
1499369123911,-0.44745555809872606,0.7468986037994965,0.5160601205462729
1499369123927,-0.4469672693980318,0.7466544594491493,0.5176470588235293
1499369123943,-0.4498970016021975,0.7456778820477608,0.5155718318455786
1499369123959,-0.44867627985046177,0.7455558098725872,0.5164263370717936
1499369123975,-0.44867627985046177,0.7457999542229343,0.5161821927214465
1499369123991,-0.4490424963759825,0.7459220263981079,0.5160601205462729
1499369124007,-0.4468451972228582,0.7426260776684215,0.5150835431448844
1499369124023,-0.44831006332494105,0.7457999542229343,0.5154497596704051
1499369124039,-0.44831006332494105,0.746166170748455,0.5153276874952315
1499369124055,-0.4498970016021975,0.7472648203250172,0.5167925535973144
1499369124071,-0.4476997024490732,0.7468986037994965,0.5183794918745708
1499369124087,-0.4459906919966432,0.7466544594491493,0.5175249866483558
1499369124103,-0.4463569085221639,0.7471427481498436,0.5182574196993972
1499369124119,-0.4476997024490732,0.7466544594491493,0.5166704814221408
1499369124135,-0.44879835202563534,0.7464103150988022,0.5158159761959258
1499369124151,-0.44757763027389963,0.7455558098725872,0.5170366979476615
1499369124167,-0.4480659189745939,0.7457999542229343,0.5183794918745708
1499369124183,-0.44794384679942034,0.7471427481498436,0.5164263370717936
1499369124199,-0.4480659189745939,0.7448233768215458,0.5172808422980086
1499369124215,-0.44794384679942034,0.7447013046463722,0.5180132753490501
1499369124231,-0.4476997024490732,0.7450675211718929,0.5172808422980086
1499369124247,-0.44757763027389963,0.7459220263981079,0.5171587701228351
1499369124263,-0.44916456855115605,0.7465323872739758,0.5156939040207522
1499369124279,-0.45001907377737105,0.746166170748455,0.5189898527504386
1499369124295,-0.4498970016021975,0.7464103150988022,0.5191119249256122
1499369124311,-0.44965285725185034,0.7460440985732815,0.5189898527504386
1499369124327,-0.44916456855115605,0.7456778820477608,0.5170366979476615
1499369124343,-0.4497749294270239,0.74531166552224,0.5192339971007858
1499369124359,-0.4485542076752882,0.7442130159456779,0.5169146257724879
1499369124375,-0.4481879911497675,0.7447013046463722,0.5176470588235293
1499369124391,-0.4476997024490732,0.746166170748455,0.5181353475242236
1499369124407,-0.4480659189745939,0.7471427481498436,0.5189898527504386
1499369124423,-0.4490424963759825,0.7467765316243229,0.5177691309987029
1499369124439,-0.4494087129015032,0.746166170748455,0.5170366979476615
1499369124455,-0.4494087129015032,0.7459220263981079,0.5152056153200579
1499369124471,-0.4473334859235525,0.7459220263981079,0.5172808422980086
1499369124487,-0.44757763027389963,0.7451895933470665,0.5192339971007858
1499369124502,-0.44660105287251106,0.7447013046463722,0.5180132753490501
1499369124518,-0.4472114137483789,0.746166170748455,0.5161821927214465
1499369124534,-0.44965285725185034,0.7451895933470665,0.5165484092469672
1499369124550,-0.44745555809872606,0.7467765316243229,0.5177691309987029
1499369124566,-0.44708934157320535,0.7456778820477608,0.5164263370717936
1499369124582,-0.44745555809872606,0.7459220263981079,0.5163042648966201
1499369124598,-0.45050736247806533,0.7467765316243229,0.5178912031738765
1499369124614,-0.4506294346532389,0.74702067597467,0.5165484092469672
1499369124630,-0.45087357900358604,0.747875181200885,0.5170366979476615
1499369124646,-0.4484321355001146,0.7464103150988022,0.5170366979476615
1499369124662,-0.4446478980697339,0.7460440985732815,0.5187457084000915
1499369124678,-0.4444037537193868,0.74702067597467,0.5171587701228351
1499369124694,-0.4472114137483789,0.7471427481498436,0.5182574196993972
1499369124710,-0.4472114137483789,0.7467765316243229,0.5178912031738765
1499369124726,-0.4497749294270239,0.7464103150988022,0.5178912031738765
1499369124742,-0.4507515068284125,0.7451895933470665,0.5152056153200579
1499369124758,-0.44831006332494105,0.7471427481498436,0.5156939040207522
1499369124774,-0.44782177462424677,0.7472648203250172,0.5181353475242236
1499369124790,-0.4455024032959489,0.7471427481498436,0.5170366979476615
1499369124806,-0.4442816815442132,0.7455558098725872,0.5175249866483558
1499369124822,-0.4456244754711225,0.7468986037994965,0.5160601205462729
1499369124838,-0.4480659189745939,0.7472648203250172,0.5158159761959258
1499369124854,-0.4506294346532389,0.7447013046463722,0.5176470588235293
1499369124870,-0.4527046616311896,0.7450675211718929,0.5180132753490501
1499369124886,-0.4518501564049746,0.74360265506981,0.5158159761959258
1499369124902,-0.45136186770428033,0.7445792324711986,0.5156939040207522
1499369124918,-0.4484321355001146,0.7467765316243229,0.5170366979476615
1499369124934,-0.44708934157320535,0.7460440985732815,0.5160601205462729
1499369124950,-0.4468451972228582,0.7489738307774472,0.5150835431448844
1499369124966,-0.4473334859235525,0.7468986037994965,0.5170366979476615
1499369124982,-0.44757763027389963,0.7475089646753643,0.5156939040207522
1499369124998,-0.44916456855115605,0.7457999542229343,0.5180132753490501
1499369125014,-0.44965285725185034,0.7483634699015793,0.5156939040207522
1499369125030,-0.4498970016021975,0.7476310368505379,0.5163042648966201
1499369125046,-0.44879835202563534,0.7460440985732815,0.5172808422980086
1499369125062,-0.44782177462424677,0.7471427481498436,0.5158159761959258
1499369125078,-0.4464789806973375,0.7454337376974136,0.5174029144731822
1499369125094,-0.44660105287251106,0.7450675211718929,0.5178912031738765
1499369125110,-0.4490424963759825,0.7464103150988022,0.5170366979476615
1499369125126,-0.4489204242008089,0.746166170748455,0.5156939040207522
1499369125142,-0.4480659189745939,0.7440909437705043,0.5176470588235293
1499369125158,-0.4476997024490732,0.7464103150988022,0.5175249866483558
1499369125174,-0.4489204242008089,0.7468986037994965,0.5156939040207522
1499369125190,-0.45087357900358604,0.746166170748455,0.5164263370717936
1499369125206,-0.4502632181277182,0.7460440985732815,0.5181353475242236
1499369125222,-0.44867627985046177,0.7467765316243229,0.5188677805752651
1499369125238,-0.44708934157320535,0.7459220263981079,0.5185015640497443
1499369125254,-0.4451361867704282,0.7460440985732815,0.5199664301518272
1499369125270,-0.44623483634699035,0.7455558098725872,0.5147173266193636
1499369125286,-0.44757763027389963,0.747875181200885,0.5175249866483558
1499369125302,-0.4484321355001146,0.7464103150988022,0.5163042648966201
1499369125318,-0.4490424963759825,0.746166170748455,0.5170366979476615
1499369125334,-0.44953078507667676,0.7466544594491493,0.5166704814221408
1499369125350,-0.4484321355001146,0.7457999542229343,0.5150835431448844
1499369125366,-0.44708934157320535,0.7462882429236286,0.5171587701228351
1499369125382,-0.44794384679942034,0.7466544594491493,0.5191119249256122
1499369125398,-0.4463569085221639,0.7462882429236286,0.5187457084000915
1499369125414,-0.44757763027389963,0.7465323872739758,0.5178912031738765
1499369125430,-0.44879835202563534,0.7449454489967193,0.5183794918745708
1499369125446,-0.4497749294270239,0.7450675211718929,0.5154497596704051
1499369125462,-0.45136186770428033,0.74531166552224,0.5154497596704051
1499369125478,-0.45136186770428033,0.7462882429236286,0.5153276874952315
1499369125494,-0.44916456855115605,0.7459220263981079,0.5161821927214465
1499369125510,-0.4484321355001146,0.7462882429236286,0.5165484092469672
1499369125526,-0.4480659189745939,0.7481193255512322,0.5186236362249179
1499369125542,-0.4492866407263296,0.747875181200885,0.5165484092469672
1499369125558,-0.4484321355001146,0.74702067597467,0.5180132753490501
1499369125574,-0.4492866407263296,0.7456778820477608,0.5164263370717936
1499369125590,-0.4492866407263296,0.7456778820477608,0.5174029144731822
1499369125606,-0.4502632181277182,0.74702067597467,0.5180132753490501
1499369125622,-0.4492866407263296,0.7472648203250172,0.5180132753490501
1499369125638,-0.4476997024490732,0.7456778820477608,0.5182574196993972
1499369125654,-0.44745555809872606,0.7448233768215458,0.5171587701228351
1499369125670,-0.44782177462424677,0.7464103150988022,0.5185015640497443
1499369125686,-0.4497749294270239,0.7473868925001907,0.5158159761959258
1499369125702,-0.4509956511787596,0.7477531090257115,0.5160601205462729
1499369125718,-0.44757763027389963,0.74531166552224,0.5153276874952315
1499369125733,-0.44794384679942034,0.7462882429236286,0.5177691309987029
1499369125749,-0.4480659189745939,0.7459220263981079,0.5177691309987029
1499369125765,-0.44916456855115605,0.7454337376974136,0.5160601205462729
1499369125781,-0.45001907377737105,0.7455558098725872,0.5177691309987029
1499369125797,-0.4490424963759825,0.7450675211718929,0.5170366979476615
1499369125813,-0.44965285725185034,0.7481193255512322,0.5137407492179751
1499369125829,-0.4485542076752882,0.7479972533760586,0.5175249866483558
1499369125845,-0.44831006332494105,0.7477531090257115,0.5188677805752651
1499369125861,-0.4469672693980318,0.7462882429236286,0.5196002136263065
1499369125877,-0.44574654764629607,0.7447013046463722,0.5178912031738765
1499369125893,-0.4484321355001146,0.742748149843595,0.5169146257724879
1499369125909,-0.4481879911497675,0.7433585107194629,0.5159380483710994
1499369125925,-0.4476997024490732,0.7455558098725872,0.5172808422980086
1499369125941,-0.4494087129015032,0.7440909437705043,0.5171587701228351
1499369125957,-0.44794384679942034,0.7450675211718929,0.5152056153200579
1499369125973,-0.44794384679942034,0.7448233768215458,0.5149614709697108
1499369125989,-0.4494087129015032,0.7443350881208515,0.5154497596704051
1499369126005,-0.44916456855115605,0.7449454489967193,0.5156939040207522
1499369126021,-0.44953078507667676,0.7467765316243229,0.5196002136263065
1499369126037,-0.4494087129015032,0.7450675211718929,0.5158159761959258
1499369126053,-0.44916456855115605,0.7468986037994965,0.5177691309987029
1499369126069,-0.4480659189745939,0.7457999542229343,0.5172808422980086
1499369126085,-0.4485542076752882,0.7456778820477608,0.5206988632028686
1499369126101,-0.44745555809872606,0.7467765316243229,0.5167925535973144
1499369126117,-0.4473334859235525,0.7465323872739758,0.5165484092469672
1499369126133,-0.44794384679942034,0.7464103150988022,0.5166704814221408
1499369126149,-0.4494087129015032,0.7472648203250172,0.5177691309987029
1499369126165,-0.4502632181277182,0.7456778820477608,0.5169146257724879
1499369126181,-0.4490424963759825,0.747875181200885,0.5154497596704051
1499369126197,-0.44916456855115605,0.7462882429236286,0.5142290379186694
1499369126213,-0.44782177462424677,0.7466544594491493,0.5144731822690165
1499369126229,-0.44757763027389963,0.74531166552224,0.5159380483710994
1499369126245,-0.44672312504768463,0.7448233768215458,0.5138628213931486
1499369126261,-0.4485542076752882,0.7447013046463722,0.5150835431448844
1499369126277,-0.4497749294270239,0.7447013046463722,0.5159380483710994
1499369126293,-0.45160601205462747,0.7437247272449836,0.5164263370717936
1499369126309,-0.44965285725185034,0.7462882429236286,0.5150835431448844
1499369126325,-0.44757763027389963,0.7456778820477608,0.5160601205462729
1499369126341,-0.4464789806973375,0.7464103150988022,0.5175249866483558
1499369126357,-0.4476997024490732,0.7459220263981079,0.5172808422980086
1499369126373,-0.4490424963759825,0.7462882429236286,0.5182574196993972
1499369126389,-0.44916456855115605,0.7467765316243229,0.5163042648966201
1499369126405,-0.44953078507667676,0.74702067597467,0.5172808422980086
1499369126421,-0.44708934157320535,0.7479972533760586,0.5191119249256122
1499369126437,-0.44782177462424677,0.7472648203250172,0.5156939040207522
1499369126453,-0.4461127641718168,0.7465323872739758,0.5169146257724879
1499369126469,-0.4473334859235525,0.7468986037994965,0.5150835431448844
1499369126485,-0.45001907377737105,0.7477531090257115,0.5159380483710994
1499369126501,-0.4489204242008089,0.7468986037994965,0.5148393987945372
1499369126517,-0.4497749294270239,0.7466544594491493,0.5153276874952315
1499369126533,-0.45087357900358604,0.7481193255512322,0.5183794918745708
1499369126549,-0.44916456855115605,0.7466544594491493,0.5153276874952315
1499369126565,-0.44831006332494105,0.7454337376974136,0.5176470588235293
1499369126581,-0.4476997024490732,0.746166170748455,0.5178912031738765
1499369126597,-0.44831006332494105,0.7466544594491493,0.5182574196993972
1499369126613,-0.44965285725185034,0.7457999542229343,0.5177691309987029
1499369126629,-0.4506294346532389,0.7447013046463722,0.5170366979476615
1499369126645,-0.45123979552910676,0.7462882429236286,0.5152056153200579
1499369126661,-0.45038529030289176,0.7459220263981079,0.5163042648966201
1499369126677,-0.45001907377737105,0.7443350881208515,0.5164263370717936
1499369126693,-0.4485542076752882,0.7460440985732815,0.5153276874952315
1499369126709,-0.44660105287251106,0.7448233768215458,0.5164263370717936
1499369126725,-0.44660105287251106,0.7459220263981079,0.5161821927214465
1499369126741,-0.44782177462424677,0.7464103150988022,0.5160601205462729
1499369126757,-0.44794384679942034,0.7465323872739758,0.5175249866483558
1499369126773,-0.45136186770428033,0.7460440985732815,0.5194781414511329
1499369126789,-0.4502632181277182,0.7455558098725872,0.5171587701228351
1499369126805,-0.44782177462424677,0.746166170748455,0.5183794918745708
1499369126821,-0.4473334859235525,0.7460440985732815,0.5176470588235293
1499369126837,-0.44672312504768463,0.7462882429236286,0.5175249866483558
1499369126853,-0.44586861982146964,0.7466544594491493,0.5172808422980086
1499369126869,-0.4485542076752882,0.7464103150988022,0.5175249866483558
1499369126885,-0.4497749294270239,0.7459220263981079,0.5176470588235293
1499369126901,-0.4497749294270239,0.7460440985732815,0.5188677805752651
1499369126917,-0.4468451972228582,0.7454337376974136,0.5172808422980086
1499369126933,-0.44745555809872606,0.7459220263981079,0.5165484092469672
1499369126949,-0.4473334859235525,0.7462882429236286,0.5147173266193636
1499369126965,-0.45038529030289176,0.746166170748455,0.5160601205462729
1499369126981,-0.4494087129015032,0.7472648203250172,0.5156939040207522
1499369126996,-0.44953078507667676,0.7449454489967193,0.5187457084000915
1499369127012,-0.4469672693980318,0.7465323872739758,0.5186236362249179
1499369127028,-0.4473334859235525,0.7468986037994965,0.5210650797283893
1499369127044,-0.44708934157320535,0.746166170748455,0.5163042648966201
1499369127060,-0.4459906919966432,0.7467765316243229,0.5149614709697108
1499369127076,-0.44708934157320535,0.7465323872739758,0.5175249866483558
1499369127092,-0.44757763027389963,0.7475089646753643,0.5176470588235293
1499369127108,-0.45038529030289176,0.7483634699015793,0.5182574196993972
1499369127124,-0.44916456855115605,0.7459220263981079,0.5191119249256122
1499369127140,-0.4476997024490732,0.7460440985732815,0.5186236362249179
1499369127156,-0.4485542076752882,0.7464103150988022,0.5199664301518272
1499369127172,-0.4484321355001146,0.7464103150988022,0.5159380483710994
1499369127188,-0.4489204242008089,0.7459220263981079,0.5166704814221408
1499369127204,-0.44757763027389963,0.7449454489967193,0.5160601205462729
1499369127220,-0.4480659189745939,0.7455558098725872,0.5170366979476615
1499369127236,-0.4494087129015032,0.7456778820477608,0.5143511100938429
1499369127252,-0.4490424963759825,0.7437247272449836,0.5164263370717936
1499369127268,-0.44953078507667676,0.746166170748455,0.5176470588235293
1499369127284,-0.4484321355001146,0.7465323872739758,0.5154497596704051
1499369127300,-0.44831006332494105,0.7472648203250172,0.5149614709697108
1499369127316,-0.4463569085221639,0.746166170748455,0.5181353475242236
1499369127332,-0.44660105287251106,0.7476310368505379,0.5193560692759593
1499369127348,-0.44660105287251106,0.7460440985732815,0.5187457084000915
1499369127364,-0.4468451972228582,0.7471427481498436,0.5183794918745708
1499369127380,-0.4485542076752882,0.7464103150988022,0.5160601205462729
1499369127396,-0.4494087129015032,0.7457999542229343,0.5183794918745708
1499369127412,-0.44745555809872606,0.7479972533760586,0.5165484092469672
1499369127428,-0.4489204242008089,0.746166170748455,0.5167925535973144
1499369127444,-0.44879835202563534,0.746166170748455,0.5155718318455786
1499369127460,-0.44953078507667676,0.7459220263981079,0.5161821927214465
1499369127476,-0.4463569085221639,0.7456778820477608,0.5149614709697108
1499369127492,-0.44672312504768463,0.7455558098725872,0.5144731822690165
1499369127508,-0.4492866407263296,0.7449454489967193,0.5148393987945372
1499369127524,-0.4507515068284125,0.7454337376974136,0.5171587701228351
1499369127540,-0.45123979552910676,0.7457999542229343,0.5155718318455786
1499369127556,-0.45172808422980104,0.7460440985732815,0.5156939040207522
1499369127572,-0.4476997024490732,0.7464103150988022,0.5181353475242236
1499369127588,-0.44538033112077535,0.7456778820477608,0.5165484092469672
1499369127604,-0.44379339284351893,0.7465323872739758,0.5167925535973144
1499369127620,-0.4451361867704282,0.7462882429236286,0.5175249866483558
1499369127636,-0.44757763027389963,0.7456778820477608,0.5174029144731822
1499369127652,-0.44745555809872606,0.7476310368505379,0.5183794918745708
1499369127668,-0.4498970016021975,0.74702067597467,0.5192339971007858
1499369127684,-0.45038529030289176,0.7473868925001907,0.5172808422980086
1499369127700,-0.44879835202563534,0.7464103150988022,0.5181353475242236
1499369127716,-0.44782177462424677,0.7460440985732815,0.5153276874952315
1499369127732,-0.4461127641718168,0.7457999542229343,0.5165484092469672
1499369127748,-0.4461127641718168,0.7445792324711986,0.5174029144731822
1499369127764,-0.44867627985046177,0.7450675211718929,0.5158159761959258
1499369127780,-0.4492866407263296,0.7462882429236286,0.5169146257724879
1499369127796,-0.45209430075532175,0.7450675211718929,0.5174029144731822
1499369127812,-0.45038529030289176,0.7438467994201572,0.5166704814221408
1499369127828,-0.4502632181277182,0.7445792324711986,0.5165484092469672
1499369127844,-0.4480659189745939,0.7451895933470665,0.5152056153200579
1499369127860,-0.4464789806973375,0.7454337376974136,0.5180132753490501
1499369127876,-0.4464789806973375,0.7466544594491493,0.5160601205462729
1499369127892,-0.4485542076752882,0.74702067597467,0.5172808422980086
1499369127908,-0.4473334859235525,0.7483634699015793,0.5171587701228351
1499369127924,-0.4492866407263296,0.7492179751277943,0.5191119249256122
1499369127940,-0.44953078507667676,0.7472648203250172,0.5182574196993972
1499369127956,-0.4494087129015032,0.746166170748455,0.5181353475242236
1499369127972,-0.4484321355001146,0.7460440985732815,0.5186236362249179
1499369127988,-0.44708934157320535,0.7450675211718929,0.5174029144731822
1499369128004,-0.4473334859235525,0.7462882429236286,0.5163042648966201
1499369128020,-0.4481879911497675,0.7462882429236286,0.5152056153200579
1499369128036,-0.4489204242008089,0.7456778820477608,0.5156939040207522
1499369128052,-0.44782177462424677,0.746166170748455,0.5170366979476615
1499369128068,-0.44745555809872606,0.7465323872739758,0.5160601205462729
1499369128084,-0.4489204242008089,0.7450675211718929,0.5169146257724879
1499369128100,-0.45001907377737105,0.7455558098725872,0.5160601205462729
1499369128116,-0.4501411459525446,0.7462882429236286,0.5180132753490501
1499369128132,-0.4485542076752882,0.747875181200885,0.5187457084000915
1499369128148,-0.4464789806973375,0.7455558098725872,0.5183794918745708
1499369128164,-0.44501411459525464,0.7460440985732815,0.5175249866483558
1499369128180,-0.4444037537193868,0.7468986037994965,0.5177691309987029
1499369128196,-0.4469672693980318,0.746166170748455,0.5158159761959258
1499369128212,-0.4490424963759825,0.7471427481498436,0.5165484092469672
1499369128228,-0.44953078507667676,0.7462882429236286,0.5177691309987029
1499369128244,-0.45001907377737105,0.7467765316243229,0.5166704814221408
1499369128260,-0.4484321355001146,0.7464103150988022,0.5145952544441901
1499369128275,-0.4490424963759825,0.7460440985732815,0.5169146257724879
1499369128291,-0.44831006332494105,0.7454337376974136,0.5175249866483558
1499369128307,-0.4464789806973375,0.7460440985732815,0.5165484092469672
1499369128323,-0.44623483634699035,0.7465323872739758,0.5166704814221408
1499369128339,-0.44831006332494105,0.7450675211718929,0.5177691309987029
1499369128355,-0.4498970016021975,0.74531166552224,0.5167925535973144
1499369128371,-0.4498970016021975,0.7459220263981079,0.5170366979476615
1499369128387,-0.45172808422980104,0.7449454489967193,0.5136186770428015
1499369128403,-0.4494087129015032,0.7447013046463722,0.5160601205462729
1499369128419,-0.4484321355001146,0.74531166552224,0.5167925535973144
1499369128435,-0.44757763027389963,0.7455558098725872,0.5177691309987029
1499369128451,-0.4469672693980318,0.7459220263981079,0.5169146257724879
1499369128467,-0.4472114137483789,0.7473868925001907,0.5156939040207522
1499369128483,-0.4473334859235525,0.7455558098725872,0.5166704814221408
1499369128499,-0.4473334859235525,0.7462882429236286,0.5163042648966201
1499369128515,-0.4490424963759825,0.7456778820477608,0.5170366979476615
1499369128531,-0.44953078507667676,0.7466544594491493,0.5170366979476615
1499369128547,-0.44953078507667676,0.74531166552224,0.5165484092469672
1499369128563,-0.44794384679942034,0.7454337376974136,0.5177691309987029
1499369128579,-0.4469672693980318,0.74702067597467,0.5161821927214465
1499369128595,-0.44623483634699035,0.7475089646753643,0.5163042648966201
1499369128611,-0.44782177462424677,0.7462882429236286,0.5181353475242236
1499369128627,-0.4501411459525446,0.7473868925001907,0.5154497596704051
1499369128643,-0.44660105287251106,0.746166170748455,0.5172808422980086
1499369128659,-0.4459906919966432,0.7455558098725872,0.5141069657434958
1499369128675,-0.4476997024490732,0.7472648203250172,0.5155718318455786
1499369128691,-0.4489204242008089,0.7462882429236286,0.5171587701228351
1499369128707,-0.45087357900358604,0.7456778820477608,0.5159380483710994
1499369128723,-0.44879835202563534,0.7459220263981079,0.5174029144731822
1499369128739,-0.4473334859235525,0.7468986037994965,0.5172808422980086
1499369128755,-0.4451361867704282,0.7482413977264057,0.5170366979476615
1499369128771,-0.4464789806973375,0.7468986037994965,0.5180132753490501
1499369128787,-0.4472114137483789,0.7465323872739758,0.5189898527504386
1499369128803,-0.4485542076752882,0.746166170748455,0.5183794918745708
1499369128819,-0.44745555809872606,0.7460440985732815,0.5158159761959258
1499369128835,-0.4484321355001146,0.7442130159456779,0.5177691309987029
1499369128851,-0.4484321355001146,0.7471427481498436,0.5150835431448844
1499369128867,-0.4484321355001146,0.7464103150988022,0.5144731822690165
1499369128883,-0.44782177462424677,0.7465323872739758,0.5170366979476615
1499369128899,-0.44672312504768463,0.7460440985732815,0.5181353475242236
1499369128915,-0.44831006332494105,0.7449454489967193,0.5167925535973144
1499369128931,-0.4481879911497675,0.7462882429236286,0.5172808422980086
1499369128947,-0.4484321355001146,0.7459220263981079,0.5180132753490501
1499369128963,-0.44953078507667676,0.7468986037994965,0.5149614709697108
1499369128979,-0.4498970016021975,0.7456778820477608,0.5163042648966201
1499369128995,-0.4489204242008089,0.7450675211718929,0.5178912031738765
1499369129011,-0.4476997024490732,0.7451895933470665,0.5149614709697108
1499369129027,-0.4489204242008089,0.7467765316243229,0.5165484092469672
1499369129043,-0.4480659189745939,0.7455558098725872,0.5170366979476615
1499369129059,-0.4494087129015032,0.7460440985732815,0.5182574196993972
1499369129075,-0.4481879911497675,0.7465323872739758,0.5166704814221408
1499369129091,-0.4480659189745939,0.7459220263981079,0.5160601205462729
1499369129107,-0.4484321355001146,0.7479972533760586,0.5150835431448844
1499369129123,-0.44867627985046177,0.7471427481498436,0.5167925535973144
1499369129139,-0.4484321355001146,0.74702067597467,0.5163042648966201
1499369129155,-0.4476997024490732,0.7462882429236286,0.5188677805752651
1499369129171,-0.44794384679942034,0.7467765316243229,0.5156939040207522
1499369129187,-0.4476997024490732,0.7456778820477608,0.5161821927214465
1499369129203,-0.45050736247806533,0.74531166552224,0.5174029144731822
1499369129219,-0.4498970016021975,0.7437247272449836,0.5182574196993972
1499369129235,-0.44757763027389963,0.746166170748455,0.5159380483710994
1499369129251,-0.44586861982146964,0.7455558098725872,0.5172808422980086
1499369129267,-0.44782177462424677,0.7468986037994965,0.5144731822690165
1499369129283,-0.44794384679942034,0.7467765316243229,0.5164263370717936
1499369129299,-0.44965285725185034,0.7489738307774472,0.5176470588235293
1499369129315,-0.45038529030289176,0.7473868925001907,0.5183794918745708
1499369129331,-0.4501411459525446,0.7481193255512322,0.5186236362249179
1499369129347,-0.44708934157320535,0.7466544594491493,0.5150835431448844
1499369129363,-0.44586861982146964,0.7468986037994965,0.5155718318455786
1499369129379,-0.44623483634699035,0.7449454489967193,0.5169146257724879
1499369129395,-0.44831006332494105,0.7449454489967193,0.5158159761959258
1499369129411,-0.45001907377737105,0.7457999542229343,0.5167925535973144
1499369129427,-0.4492866407263296,0.7456778820477608,0.5156939040207522
1499369129443,-0.44879835202563534,0.7465323872739758,0.5156939040207522
1499369129459,-0.4497749294270239,0.7484855420767529,0.5177691309987029
1499369129475,-0.44660105287251106,0.7460440985732815,0.5177691309987029
1499369129491,-0.4459906919966432,0.7455558098725872,0.5156939040207522
1499369129506,-0.44745555809872606,0.74531166552224,0.5164263370717936
1499369129522,-0.44916456855115605,0.7471427481498436,0.5175249866483558
1499369129538,-0.44745555809872606,0.7476310368505379,0.5170366979476615
1499369129554,-0.44879835202563534,0.7454337376974136,0.5187457084000915
1499369129570,-0.44757763027389963,0.7456778820477608,0.5182574196993972
1499369129586,-0.44831006332494105,0.7457999542229343,0.5181353475242236
1499369129602,-0.4485542076752882,0.7448233768215458,0.5171587701228351
1499369129618,-0.4481879911497675,0.7475089646753643,0.5164263370717936
1499369129634,-0.44745555809872606,0.7467765316243229,0.5148393987945372
1499369129650,-0.4469672693980318,0.7455558098725872,0.5161821927214465
1499369129666,-0.4473334859235525,0.7454337376974136,0.5170366979476615
1499369129682,-0.4489204242008089,0.7448233768215458,0.5185015640497443
1499369129698,-0.4507515068284125,0.7462882429236286,0.5170366979476615
1499369129714,-0.44867627985046177,0.7462882429236286,0.5166704814221408
1499369129730,-0.44953078507667676,0.7460440985732815,0.5165484092469672
1499369129746,-0.4476997024490732,0.7471427481498436,0.5161821927214465
1499369129762,-0.4464789806973375,0.74702067597467,0.5167925535973144
1499369129778,-0.44782177462424677,0.7475089646753643,0.5159380483710994
1499369129794,-0.4473334859235525,0.7465323872739758,0.5169146257724879
1499369129810,-0.44867627985046177,0.74702067597467,0.5185015640497443
1499369129826,-0.4506294346532389,0.7473868925001907,0.5178912031738765
1499369129842,-0.44879835202563534,0.7457999542229343,0.5174029144731822
1499369129858,-0.44660105287251106,0.7457999542229343,0.5161821927214465
1499369129874,-0.44708934157320535,0.74531166552224,0.5165484092469672
1499369129890,-0.4498970016021975,0.7462882429236286,0.5188677805752651
1499369129906,-0.4501411459525446,0.7468986037994965,0.5170366979476615
1499369129922,-0.4506294346532389,0.7465323872739758,0.5187457084000915
1499369129938,-0.44879835202563534,0.7466544594491493,0.5156939040207522
1499369129954,-0.4461127641718168,0.7454337376974136,0.5176470588235293
1499369129970,-0.4461127641718168,0.7472648203250172,0.5149614709697108
1499369129986,-0.44660105287251106,0.746166170748455,0.5182574196993972
1499369130002,-0.44757763027389963,0.7455558098725872,0.5165484092469672
1499369130018,-0.4484321355001146,0.7462882429236286,0.5159380483710994
1499369130034,-0.4473334859235525,0.7472648203250172,0.5158159761959258
1499369130050,-0.4472114137483789,0.7467765316243229,0.5172808422980086
1499369130066,-0.4468451972228582,0.7467765316243229,0.5185015640497443
1499369130082,-0.4461127641718168,0.7464103150988022,0.5200885023270008
1499369130098,-0.44660105287251106,0.7468986037994965,0.5187457084000915
1499369130114,-0.4481879911497675,0.7471427481498436,0.5180132753490501
1499369130130,-0.4468451972228582,0.746166170748455,0.5166704814221408
1499369130146,-0.4485542076752882,0.7455558098725872,0.5164263370717936
1499369130162,-0.4480659189745939,0.74702067597467,0.5175249866483558
1499369130178,-0.45001907377737105,0.7451895933470665,0.5149614709697108
1499369130194,-0.44879835202563534,0.74531166552224,0.5141069657434958
1499369130210,-0.45001907377737105,0.7455558098725872,0.5161821927214465
1499369130226,-0.44782177462424677,0.74531166552224,0.5189898527504386
1499369130242,-0.4459906919966432,0.7468986037994965,0.5163042648966201
1499369130258,-0.4455024032959489,0.7465323872739758,0.5180132753490501
1499369130274,-0.4469672693980318,0.7464103150988022,0.5176470588235293
1499369130290,-0.4473334859235525,0.7472648203250172,0.5170366979476615
1499369130306,-0.4481879911497675,0.7472648203250172,0.5191119249256122
1499369130322,-0.44867627985046177,0.747875181200885,0.5181353475242236
1499369130338,-0.44782177462424677,0.7468986037994965,0.5187457084000915
1499369130354,-0.4464789806973375,0.7466544594491493,0.5198443579766536
1499369130370,-0.44623483634699035,0.7468986037994965,0.5161821927214465
1499369130386,-0.4459906919966432,0.74702067597467,0.5165484092469672
1499369130402,-0.4472114137483789,0.7467765316243229,0.5154497596704051
1499369130418,-0.4501411459525446,0.7462882429236286,0.5158159761959258
1499369130434,-0.4485542076752882,0.7466544594491493,0.5170366979476615
1499369130450,-0.4485542076752882,0.7473868925001907,0.5161821927214465
1499369130466,-0.44660105287251106,0.74531166552224,0.5167925535973144
1499369130482,-0.4473334859235525,0.7457999542229343,0.5163042648966201
1499369130498,-0.44831006332494105,0.7467765316243229,0.5154497596704051
1499369130514,-0.4501411459525446,0.7481193255512322,0.5167925535973144
1499369130530,-0.4481879911497675,0.7456778820477608,0.5164263370717936
1499369130546,-0.44660105287251106,0.7456778820477608,0.5171587701228351
1499369130562,-0.4463569085221639,0.7467765316243229,0.5186236362249179
1499369130578,-0.4476997024490732,0.7467765316243229,0.5167925535973144
1499369130594,-0.44672312504768463,0.7462882429236286,0.5159380483710994
1499369130610,-0.44831006332494105,0.7459220263981079,0.5175249866483558
1499369130626,-0.4492866407263296,0.7450675211718929,0.5189898527504386
1499369130642,-0.4472114137483789,0.7472648203250172,0.5172808422980086
1499369130658,-0.4489204242008089,0.7468986037994965,0.5194781414511329
1499369130674,-0.44672312504768463,0.7449454489967193,0.5186236362249179
1499369130690,-0.4472114137483789,0.7460440985732815,0.5170366979476615
1499369130706,-0.44574654764629607,0.7468986037994965,0.5185015640497443
1499369130722,-0.44660105287251106,0.7467765316243229,0.5158159761959258
1499369130738,-0.44916456855115605,0.744457160296025,0.5176470588235293
1499369130754,-0.4492866407263296,0.7473868925001907,0.5171587701228351
1499369130769,-0.4502632181277182,0.7462882429236286,0.5171587701228351
1499369130785,-0.4501411459525446,0.7451895933470665,0.5163042648966201
1499369130801,-0.44879835202563534,0.7439688715953308,0.5133745326924544
1499369130817,-0.4494087129015032,0.7451895933470665,0.5189898527504386
1499369130833,-0.44623483634699035,0.7454337376974136,0.5177691309987029
1499369130849,-0.4452582589456018,0.7465323872739758,0.5166704814221408
1499369130865,-0.4481879911497675,0.747875181200885,0.5181353475242236
1499369130881,-0.4473334859235525,0.747875181200885,0.5167925535973144
1499369130897,-0.44916456855115605,0.7477531090257115,0.5177691309987029
1499369130913,-0.44953078507667676,0.747875181200885,0.5177691309987029
1499369130929,-0.4497749294270239,0.7475089646753643,0.5194781414511329
1499369130945,-0.4481879911497675,0.7471427481498436,0.51972228580148
1499369130961,-0.4469672693980318,0.7455558098725872,0.5182574196993972
1499369130977,-0.44574654764629607,0.7466544594491493,0.5178912031738765
1499369130993,-0.44745555809872606,0.7451895933470665,0.5176470588235293
1499369131009,-0.4469672693980318,0.7460440985732815,0.5169146257724879
1499369131025,-0.4469672693980318,0.7457999542229343,0.5175249866483558
1499369131041,-0.44623483634699035,0.7460440985732815,0.5181353475242236
1499369131057,-0.4501411459525446,0.744457160296025,0.5166704814221408
1499369131073,-0.45087357900358604,0.7439688715953308,0.5169146257724879
1499369131089,-0.44879835202563534,0.7456778820477608,0.5210650797283893
1499369131105,-0.4509956511787596,0.7457999542229343,0.5175249866483558
1499369131121,-0.4463569085221639,0.7462882429236286,0.5164263370717936
1499369131137,-0.4463569085221639,0.74702067597467,0.5144731822690165
1499369131153,-0.44672312504768463,0.7467765316243229,0.5141069657434958
1499369131169,-0.45087357900358604,0.7465323872739758,0.5159380483710994
1499369131185,-0.45050736247806533,0.7472648203250172,0.5161821927214465
1499369131201,-0.44672312504768463,0.7514152742809186,0.5150835431448844
1499369131217,-0.44501411459525464,0.75385671778439,0.5142290379186694
1499369131233,-0.4481879911497675,0.7475089646753643,0.5163042648966201
1499369131249,-0.45636682688639674,0.7432364385442893,0.5158159761959258
1499369131265,-0.456855115587091,0.7425040054932479,0.5161821927214465
1499369131281,-0.45380331120775175,0.7422598611429008,0.5149614709697108
1499369131297,-0.4464789806973375,0.7406729228656443,0.5144731822690165
1499369131313,-0.4418402380407418,0.7464103150988022,0.5139848935683222
1499369131329,-0.4423285267414361,0.7498283360036622,0.510933089188983
1499369131345,-0.44672312504768463,0.7522697795071336,0.5111772335393301
1499369131361,-0.45465781643396674,0.7532463569085222,0.5134966048676279
1499369131377,-0.45539024948500817,0.7532463569085222,0.5136186770428015
1499369131393,-0.45172808422980104,0.7498283360036622,0.5159380483710994
1499369131409,-0.4476997024490732,0.7484855420767529,0.5186236362249179
1499369131425,-0.4413519493400475,0.7477531090257115,0.5192339971007858
1499369131441,-0.4373235675593192,0.7472648203250172,0.5176470588235293
1499369131457,-0.43866636148622895,0.7467765316243229,0.51972228580148
1499369131473,-0.43915465018692323,0.7449454489967193,0.5211871519035629
1499369131489,-0.44452582589456036,0.7451895933470665,0.5217975127794308
1499369131505,-0.4476997024490732,0.7447013046463722,0.5219195849546043
1499369131521,-0.44916456855115605,0.7468986037994965,0.5208209353780422
1499369131537,-0.44867627985046177,0.7464103150988022,0.51972228580148
1499369131553,-0.4464789806973375,0.7457999542229343,0.5155718318455786
1499369131569,-0.44965285725185034,0.7455558098725872,0.5142290379186694
1499369131585,-0.4497749294270239,0.7454337376974136,0.5148393987945372
1499369131601,-0.4480659189745939,0.7471427481498436,0.5150835431448844
1499369131617,-0.44782177462424677,0.7459220263981079,0.5149614709697108
1499369131633,-0.4481879911497675,0.7468986037994965,0.5122758831158922
1499369131649,-0.4519722285801482,0.74702067597467,0.5123979552910658
1499369131665,-0.456000610360876,0.7505607690547036,0.508369573510338
1499369131681,-0.4590524147402153,0.7499504081788357,0.5086137178606851
1499369131697,-0.4566109712367439,0.747875181200885,0.5093461509117265
1499369131713,-0.45380331120775175,0.7472648203250172,0.5110551613641565
1499369131729,-0.45209430075532175,0.746166170748455,0.5091020065613794
1499369131745,-0.45172808422980104,0.7466544594491493,0.5091020065613794
1499369131761,-0.45209430075532175,0.7473868925001907,0.5069047074082551
1499369131777,-0.4528267338063632,0.7467765316243229,0.5115434500648508
1499369131793,-0.45465781643396674,0.7494621194781415,0.5127641718165865
1499369131809,-0.4506294346532389,0.7490959029526207,0.5138628213931486
1499369131825,-0.4485542076752882,0.7493400473029679,0.5142290379186694
1499369131841,-0.44794384679942034,0.7497062638284886,0.5150835431448844
1499369131857,-0.4484321355001146,0.7498283360036622,0.5149614709697108
1499369131873,-0.44745555809872606,0.7476310368505379,0.5163042648966201
1499369131889,-0.44867627985046177,0.7505607690547036,0.5141069657434958
1499369131905,-0.4461127641718168,0.7501945525291829,0.5154497596704051
1499369131921,-0.44794384679942034,0.7501945525291829,0.5149614709697108
1499369131937,-0.45087357900358604,0.7479972533760586,0.5121538109407187
1499369131953,-0.45258258945601604,0.7465323872739758,0.5103227283131151
1499369131969,-0.45246051728084247,0.7476310368505379,0.5127641718165865
1499369131985,-0.44831006332494105,0.746166170748455,0.509224078736553
1499369132001,-0.44867627985046177,0.7464103150988022,0.5089799343862058
1499369132017,-0.44916456855115605,0.7462882429236286,0.5123979552910658
1499369132032,-0.45050736247806533,0.74702067597467,0.5123979552910658
1499369132048,-0.4530708781567103,0.7484855420767529,0.5117875944151979
1499369132064,-0.4522163729304953,0.7484855420767529,0.5117875944151979
1499369132080,-0.45050736247806533,0.747875181200885,0.5125200274662394
1499369132096,-0.44916456855115605,0.7494621194781415,0.5116655222400244
1499369132112,-0.44916456855115605,0.7494621194781415,0.5098344396124208
1499369132128,-0.44953078507667676,0.7486076142519265,0.5131303883421072
1499369132144,-0.44586861982146964,0.7509269855802243,0.5127641718165865
1499369132160,-0.4494087129015032,0.7508049134050507,0.5141069657434958
1499369132176,-0.4506294346532389,0.7517814908064393,0.5121538109407187
1499369132192,-0.4480659189745939,0.7508049134050507,0.5120317387655451
1499369132208,-0.44708934157320535,0.7501945525291829,0.5106889448386358
1499369132224,-0.44831006332494105,0.7487296864271,0.5094682230869001
1499369132240,-0.4530708781567103,0.7490959029526207,0.5123979552910658
1499369132256,-0.4556343938353553,0.7488517586022736,0.5093461509117265
1499369132272,-0.45795376516365316,0.7475089646753643,0.5076371404592965
1499369132288,-0.4547798886091403,0.7462882429236286,0.5072709239337758
1499369132304,-0.4509956511787596,0.7468986037994965,0.5073929961089494
1499369132320,-0.4472114137483789,0.747875181200885,0.5072709239337758
1499369132336,-0.44745555809872606,0.7482413977264057,0.5099565117875944
1499369132352,-0.4484321355001146,0.7486076142519265,0.510078583962768
1499369132368,-0.4501411459525446,0.7499504081788357,0.5117875944151979
1499369132384,-0.44953078507667676,0.7517814908064393,0.5139848935683222
1499369132400,-0.44672312504768463,0.7523918516823072,0.5149614709697108
1499369132416,-0.44586861982146964,0.7520256351567864,0.5152056153200579
1499369132432,-0.44403753719386607,0.7505607690547036,0.5149614709697108
1499369132448,-0.44293888761730393,0.7514152742809186,0.5187457084000915
1499369132464,-0.4444037537193868,0.7499504081788357,0.5176470588235293
1499369132480,-0.4459906919966432,0.7484855420767529,0.5164263370717936
1499369132496,-0.45001907377737105,0.7465323872739758,0.5145952544441901
1499369132512,-0.4509956511787596,0.7467765316243229,0.5134966048676279
1499369132528,-0.45050736247806533,0.7481193255512322,0.5095902952620737
1499369132544,-0.44965285725185034,0.7484855420767529,0.5106889448386358
1499369132560,-0.45087357900358604,0.7465323872739758,0.5080033569848172
1499369132576,-0.4528267338063632,0.7479972533760586,0.5093461509117265
1499369132592,-0.4535591668574046,0.7475089646753643,0.5094682230869001
1499369132608,-0.4545357442587932,0.7482413977264057,0.5088578622110322
1499369132624,-0.45209430075532175,0.7479972533760586,0.5112993057145037
1499369132640,-0.4494087129015032,0.7466544594491493,0.5133745326924544
1499369132656,-0.45160601205462747,0.7492179751277943,0.5144731822690165
1499369132672,-0.4507515068284125,0.7490959029526207,0.5128862439917601
1499369132688,-0.45050736247806533,0.7490959029526207,0.5119096665903715
1499369132704,-0.4484321355001146,0.7486076142519265,0.5147173266193636
1499369132720,-0.45123979552910676,0.7492179751277943,0.5136186770428015
1499369132736,-0.4507515068284125,0.747875181200885,0.5120317387655451
1499369132752,-0.45136186770428033,0.7457999542229343,0.5112993057145037
1499369132768,-0.4506294346532389,0.7462882429236286,0.5122758831158922
1499369132784,-0.4484321355001146,0.7454337376974136,0.5137407492179751
1499369132800,-0.4473334859235525,0.7483634699015793,0.5114213778896772
1499369132816,-0.4497749294270239,0.7476310368505379,0.5132524605172808
1499369132832,-0.4522163729304953,0.7483634699015793,0.5123979552910658
1499369132848,-0.4540474555580989,0.7482413977264057,0.5117875944151979
1499369132864,-0.4552681773098346,0.7479972533760586,0.5128862439917601
1499369132880,-0.45050736247806533,0.7476310368505379,0.5137407492179751
1499369132896,-0.4506294346532389,0.7481193255512322,0.5148393987945372
1499369132912,-0.4490424963759825,0.7472648203250172,0.5133745326924544
1499369132928,-0.4523384451056689,0.7457999542229343,0.5121538109407187
1499369132944,-0.45123979552910676,0.746166170748455,0.5145952544441901
1499369132960,-0.4518501564049746,0.7464103150988022,0.5106889448386358
1499369132976,-0.4523384451056689,0.7467765316243229,0.5136186770428015
1499369132992,-0.45294880598153675,0.7459220263981079,0.5122758831158922
1499369133008,-0.45331502250705746,0.7460440985732815,0.5115434500648508
1499369133024,-0.4519722285801482,0.7466544594491493,0.5120317387655451
1499369133040,-0.4523384451056689,0.7465323872739758,0.5108110170138094
1499369133056,-0.4522163729304953,0.7466544594491493,0.5088578622110322
1499369133072,-0.45038529030289176,0.7475089646753643,0.5122758831158922
1499369133088,-0.45001907377737105,0.7468986037994965,0.5130083161669337
1499369133104,-0.45172808422980104,0.7476310368505379,0.5128862439917601
1499369133120,-0.45172808422980104,0.7473868925001907,0.5148393987945372
1499369133136,-0.45246051728084247,0.7468986037994965,0.5130083161669337
1499369133152,-0.4531929503318839,0.7479972533760586,0.5138628213931486
1499369133168,-0.45416952773327246,0.7503166247043564,0.5123979552910658
1499369133184,-0.45331502250705746,0.7483634699015793,0.5120317387655451
1499369133200,-0.4528267338063632,0.7462882429236286,0.5086137178606851
1499369133216,-0.4519722285801482,0.7479972533760586,0.5091020065613794
1499369133232,-0.4497749294270239,0.7484855420767529,0.5099565117875944
1499369133248,-0.4498970016021975,0.7479972533760586,0.5093461509117265
1499369133263,-0.4490424963759825,0.7487296864271,0.5103227283131151
1499369133279,-0.45001907377737105,0.7479972533760586,0.5084916456855115
1499369133295,-0.45123979552910676,0.7464103150988022,0.5116655222400244
1499369133311,-0.45172808422980104,0.7473868925001907,0.5127641718165865
1499369133327,-0.45136186770428033,0.7486076142519265,0.5147173266193636
1499369133343,-0.4480659189745939,0.7489738307774472,0.5152056153200579
1499369133359,-0.4473334859235525,0.7499504081788357,0.5126420996414129
1499369133375,-0.4431830319676511,0.7479972533760586,0.5130083161669337
1499369133391,-0.44367132066834536,0.7482413977264057,0.5138628213931486
1499369133407,-0.4452582589456018,0.7489738307774472,0.5183794918745708
1499369133423,-0.4472114137483789,0.749584191653315,0.5172808422980086
1499369133439,-0.4476997024490732,0.7489738307774472,0.5133745326924544
1499369133455,-0.4490424963759825,0.7490959029526207,0.5123979552910658
1499369133471,-0.45172808422980104,0.7493400473029679,0.5143511100938429
1499369133487,-0.4501411459525446,0.7514152742809186,0.5149614709697108
1499369133503,-0.44415960936903964,0.7510490577553979,0.5141069657434958
1499369133519,-0.4414740215152211,0.75214770733196,0.5159380483710994
1499369133535,-0.4404974441138325,0.7514152742809186,0.5132524605172808
1499369133551,-0.4426947432669568,0.7527580682078279,0.5145952544441901
1499369133567,-0.4472114137483789,0.7509269855802243,0.5131303883421072
1499369133583,-0.44916456855115605,0.75043869687953,0.5149614709697108
1499369133599,-0.45136186770428033,0.7489738307774472,0.5141069657434958
1499369133615,-0.4506294346532389,0.7490959029526207,0.5142290379186694
1499369133631,-0.45038529030289176,0.7472648203250172,0.510078583962768
1499369133647,-0.4469672693980318,0.7462882429236286,0.5087357900358587
1499369133663,-0.44782177462424677,0.7468986037994965,0.5102006561379415
1499369133679,-0.44867627985046177,0.747875181200885,0.5084916456855115
1499369133695,-0.4490424963759825,0.7481193255512322,0.5091020065613794
1499369133711,-0.44965285725185034,0.7494621194781415,0.5088578622110322
1499369133727,-0.4484321355001146,0.7506828412298772,0.5062943465323873
1499369133743,-0.4480659189745939,0.7500724803540093,0.5094682230869001
1499369133759,-0.44708934157320535,0.7514152742809186,0.5155718318455786
1499369133775,-0.44623483634699035,0.7514152742809186,0.5141069657434958
1499369133791,-0.4455024032959489,0.7509269855802243,0.5160601205462729
1499369133807,-0.4459906919966432,0.7514152742809186,0.5144731822690165
1499369133823,-0.44623483634699035,0.75043869687953,0.5164263370717936
1499369133839,-0.44623483634699035,0.7501945525291829,0.5172808422980086
1499369133855,-0.4464789806973375,0.7489738307774472,0.5181353475242236
