Timestamp (ms),Gyro X (°/s),Gyro Y (°/s),Gyro Z (°/s)
1499369107316,-0.2746623941404778,-2.227817196917613,-0.33569848172737693
1499369107332,-0.213626306553806,-2.227817196917613,-0.213626306553806
1499369107348,-0.15259021896690683,-2.288853284504512,-0.2746623941404778
1499369107364,-0.15259021896690683,-2.3498893720911838,-0.213626306553806
1499369107380,-0.15259021896690683,-2.3498893720911838,-0.2746623941404778
1499369107396,-0.15259021896690683,-2.3498893720911838,-0.213626306553806
1499369107412,-0.15259021896690683,-2.410925459678083,-0.213626306553806
1499369107428,-0.213626306553806,-2.3498893720911838,-0.2746623941404778
1499369107444,-0.2746623941404778,-2.288853284504512,-0.2746623941404778
1499369107460,-0.33569848172737693,-2.288853284504512,-0.2746623941404778
1499369107476,-0.2746623941404778,-2.227817196917613,-0.33569848172737693
1499369107492,-0.213626306553806,-2.227817196917613,-0.33569848172737693
1499369107508,-0.213626306553806,-2.227817196917613,-0.33569848172737693
1499369107524,-0.2746623941404778,-2.227817196917613,-0.33569848172737693
1499369107540,-0.213626306553806,-2.227817196917613,-0.33569848172737693
1499369107556,-0.213626306553806,-2.227817196917613,-0.3967345693140487
1499369107572,-0.213626306553806,-2.227817196917613,-0.33569848172737693
1499369107588,-0.213626306553806,-2.227817196917613,-0.2746623941404778
1499369107604,-0.213626306553806,-2.227817196917613,-0.2746623941404778
1499369107620,-0.213626306553806,-2.227817196917613,-0.33569848172737693
1499369107636,-0.2746623941404778,-2.166781109330941,-0.2746623941404778
1499369107652,-0.33569848172737693,-2.166781109330941,-0.213626306553806
1499369107668,-0.213626306553806,-2.227817196917613,-0.213626306553806
1499369107684,-0.213626306553806,-2.166781109330941,-0.213626306553806
1499369107700,-0.09155413138023505,-2.166781109330941,-0.2746623941404778
1499369107716,-0.03051804379333589,-2.166781109330941,-0.2746623941404778
1499369107732,0.03051804379333589,-2.105745021744042,-0.33569848172737693
1499369107748,-0.03051804379333589,-2.105745021744042,-0.15259021896690683
1499369107764,-0.15259021896690683,-2.166781109330941,-0.213626306553806
1499369107780,-0.2746623941404778,-2.288853284504512,-0.213626306553806
1499369107796,-0.33569848172737693,-2.410925459678083,-0.213626306553806
1499369107812,-0.33569848172737693,-2.410925459678083,-0.15259021896690683
1499369107828,-0.33569848172737693,-2.410925459678083,-0.09155413138023505
1499369107844,-0.213626306553806,-2.410925459678083,-0.15259021896690683
1499369107860,-0.15259021896690683,-2.410925459678083,-0.213626306553806
1499369107876,-0.15259021896690683,-2.410925459678083,-0.213626306553806
1499369107892,-0.09155413138023505,-2.410925459678083,-0.2746623941404778
1499369107908,-0.15259021896690683,-2.410925459678083,-0.2746623941404778
1499369107924,-0.213626306553806,-2.3498893720911838,-0.3967345693140487
1499369107940,-0.213626306553806,-2.288853284504512,-0.33569848172737693
1499369107956,-0.213626306553806,-2.166781109330941,-0.33569848172737693
1499369107972,-0.2746623941404778,-2.105745021744042,-0.33569848172737693
1499369107988,-0.213626306553806,-2.04470893415737,-0.2746623941404778
1499369108004,-0.213626306553806,-2.105745021744042,-0.2746623941404778
1499369108020,-0.15259021896690683,-2.105745021744042,-0.2746623941404778
1499369108036,-0.15259021896690683,-2.227817196917613,-0.2746623941404778
1499369108052,-0.213626306553806,-2.3498893720911838,-0.2746623941404778
1499369108068,-0.213626306553806,-2.288853284504512,-0.2746623941404778
1499369108084,-0.213626306553806,-2.227817196917613,-0.2746623941404778
1499369108100,-0.2746623941404778,-2.227817196917613,-0.213626306553806
1499369108116,-0.213626306553806,-2.227817196917613,-0.2746623941404778
1499369108132,-0.213626306553806,-2.227817196917613,-0.33569848172737693
1499369108148,-0.213626306553806,-2.227817196917613,-0.213626306553806
1499369108164,-0.15259021896690683,-2.288853284504512,-0.2746623941404778
1499369108180,-0.213626306553806,-2.227817196917613,-0.33569848172737693
1499369108196,-0.2746623941404778,-2.227817196917613,-0.2746623941404778
1499369108212,-0.2746623941404778,-2.166781109330941,-0.2746623941404778
1499369108228,-0.2746623941404778,-2.166781109330941,-0.2746623941404778
1499369108244,-0.33569848172737693,-2.166781109330941,-0.33569848172737693
1499369108260,-0.2746623941404778,-2.227817196917613,-0.2746623941404778
1499369108275,-0.213626306553806,-2.227817196917613,-0.213626306553806
1499369108291,-0.15259021896690683,-2.288853284504512,-0.213626306553806
1499369108307,-0.03051804379333589,-2.410925459678083,-0.15259021896690683
1499369108323,-0.03051804379333589,-2.3498893720911838,-0.15259021896690683
1499369108339,-0.03051804379333589,-2.410925459678083,-0.15259021896690683
1499369108355,-0.09155413138023505,-2.410925459678083,-0.15259021896690683
1499369108371,-0.213626306553806,-2.3498893720911838,-0.15259021896690683
1499369108387,-0.33569848172737693,-2.227817196917613,-0.213626306553806
1499369108403,-0.33569848172737693,-2.166781109330941,-0.2746623941404778
1499369108419,-0.33569848172737693,-2.166781109330941,-0.2746623941404778
1499369108435,-0.2746623941404778,-2.105745021744042,-0.33569848172737693
1499369108451,-0.2746623941404778,-2.105745021744042,-0.3967345693140487
1499369108467,-0.2746623941404778,-2.105745021744042,-0.45777065690094787
1499369108483,-0.2746623941404778,-2.105745021744042,-0.3967345693140487
1499369108499,-0.2746623941404778,-2.166781109330941,-0.3967345693140487
1499369108515,-0.2746623941404778,-2.166781109330941,-0.2746623941404778
1499369108531,-0.2746623941404778,-2.227817196917613,-0.33569848172737693
1499369108547,-0.213626306553806,-2.227817196917613,-0.2746623941404778
1499369108563,-0.213626306553806,-2.288853284504512,-0.2746623941404778
1499369108579,-0.213626306553806,-2.3498893720911838,-0.213626306553806
1499369108595,-0.15259021896690683,-2.3498893720911838,-0.15259021896690683
1499369108611,-0.09155413138023505,-2.288853284504512,-0.15259021896690683
1499369108627,-0.213626306553806,-2.288853284504512,-0.213626306553806
1499369108643,-0.09155413138023505,-2.227817196917613,-0.15259021896690683
1499369108659,-0.15259021896690683,-2.227817196917613,-0.213626306553806
1499369108675,-0.15259021896690683,-2.227817196917613,-0.2746623941404778
1499369108691,-0.2746623941404778,-2.227817196917613,-0.2746623941404778
1499369108707,-0.15259021896690683,-2.227817196917613,-0.2746623941404778
1499369108723,-0.15259021896690683,-2.166781109330941,-0.33569848172737693
1499369108739,-0.213626306553806,-2.166781109330941,-0.2746623941404778
1499369108755,-0.15259021896690683,-2.227817196917613,-0.33569848172737693
1499369108771,-0.213626306553806,-2.288853284504512,-0.2746623941404778
1499369108787,-0.213626306553806,-2.288853284504512,-0.2746623941404778
1499369108803,-0.213626306553806,-2.227817196917613,-0.2746623941404778
1499369108819,-0.213626306553806,-2.227817196917613,-0.2746623941404778
1499369108835,-0.2746623941404778,-2.166781109330941,-0.33569848172737693
1499369108851,-0.2746623941404778,-2.105745021744042,-0.3967345693140487
1499369108867,-0.213626306553806,-2.166781109330941,-0.33569848172737693
1499369108883,-0.03051804379333589,-2.166781109330941,-0.33569848172737693
1499369108899,-0.09155413138023505,-2.166781109330941,-0.2746623941404778
1499369108915,-0.09155413138023505,-2.227817196917613,-0.2746623941404778
1499369108931,-0.09155413138023505,-2.227817196917613,-0.2746623941404778
1499369108947,-0.09155413138023505,-2.227817196917613,-0.213626306553806
1499369108963,-0.15259021896690683,-2.227817196917613,-0.213626306553806
1499369108979,-0.2746623941404778,-2.227817196917613,-0.213626306553806
1499369108995,-0.33569848172737693,-2.166781109330941,-0.213626306553806
1499369109011,-0.2746623941404778,-2.105745021744042,-0.33569848172737693
1499369109027,-0.2746623941404778,-2.04470893415737,-0.33569848172737693
1499369109043,-0.213626306553806,-2.04470893415737,-0.3967345693140487
1499369109059,-0.213626306553806,-1.983672846570471,-0.3967345693140487
1499369109075,-0.15259021896690683,-2.04470893415737,-0.3967345693140487
1499369109091,-0.213626306553806,-2.105745021744042,-0.3967345693140487
1499369109107,-0.2746623941404778,-2.105745021744042,-0.3967345693140487
1499369109123,-0.213626306553806,-2.105745021744042,-0.33569848172737693
1499369109139,-0.15259021896690683,-2.227817196917613,-0.33569848172737693
1499369109155,-0.213626306553806,-2.288853284504512,-0.2746623941404778
1499369109171,-0.213626306553806,-2.288853284504512,-0.213626306553806
1499369109187,-0.213626306553806,-2.288853284504512,-0.213626306553806
1499369109203,-0.15259021896690683,-2.288853284504512,-0.2746623941404778
1499369109219,-0.15259021896690683,-2.3498893720911838,-0.2746623941404778
1499369109235,-0.15259021896690683,-2.288853284504512,-0.2746623941404778
1499369109251,-0.15259021896690683,-2.288853284504512,-0.2746623941404778
1499369109267,-0.213626306553806,-2.288853284504512,-0.2746623941404778
1499369109283,-0.15259021896690683,-2.288853284504512,-0.33569848172737693
1499369109299,-0.15259021896690683,-2.227817196917613,-0.2746623941404778
1499369109315,-0.15259021896690683,-2.227817196917613,-0.213626306553806
1499369109331,-0.15259021896690683,-2.166781109330941,-0.2746623941404778
1499369109347,-0.09155413138023505,-2.166781109330941,-0.2746623941404778
1499369109363,-0.213626306553806,-2.166781109330941,-0.2746623941404778
1499369109379,-0.213626306553806,-2.166781109330941,-0.2746623941404778
1499369109395,-0.213626306553806,-2.166781109330941,-0.2746623941404778
1499369109411,-0.213626306553806,-2.166781109330941,-0.2746623941404778
1499369109427,-0.213626306553806,-2.166781109330941,-0.33569848172737693
1499369109443,-0.15259021896690683,-2.166781109330941,-0.2746623941404778
1499369109459,-0.15259021896690683,-2.105745021744042,-0.2746623941404778
1499369109474,-0.213626306553806,-2.105745021744042,-0.213626306553806
1499369109490,-0.15259021896690683,-2.166781109330941,-0.2746623941404778
1499369109506,-0.15259021896690683,-2.04470893415737,-0.2746623941404778
1499369109522,-0.09155413138023505,-2.04470893415737,-0.33569848172737693
1499369109538,-0.15259021896690683,-2.04470893415737,-0.3967345693140487
1499369109554,-0.2746623941404778,-2.105745021744042,-0.3967345693140487
1499369109570,-0.3967345693140487,-2.105745021744042,-0.5188067444876197
1499369109586,-0.45777065690094787,-2.04470893415737,-0.5798428320745188
1499369109602,-0.5188067444876197,-2.04470893415737,-0.5798428320745188
1499369109618,-0.5188067444876197,-1.9226367589837992,-0.6408789196611906
1499369109634,-0.5798428320745188,-1.8005645838102282,-0.6408789196611906
1499369109650,-0.6408789196611906,-1.6174563210497581,-0.6408789196611906
1499369109666,-0.7019150072480898,-1.4953841458761872,-0.6408789196611906
1499369109682,-0.7629510948347615,-1.4343480582895154,-0.6408789196611906
1499369109698,-0.7629510948347615,-1.4343480582895154,-0.7019150072480898
1499369109714,-0.7629510948347615,-1.4343480582895154,-0.7019150072480898
1499369109730,-0.7629510948347615,-1.4953841458761872,-0.7019150072480898
1499369109746,-0.6408789196611906,-1.4953841458761872,-0.7019150072480898
1499369109762,-0.6408789196611906,-1.4953841458761872,-0.7019150072480898
1499369109778,-0.5798428320745188,-1.6174563210497581,-0.7629510948347615
1499369109794,-0.5798428320745188,-1.739528496223329,-0.7629510948347615
1499369109810,-0.5798428320745188,-1.739528496223329,-0.7629510948347615
1499369109826,-0.45777065690094787,-1.8005645838102282,-0.6408789196611906
1499369109842,-0.33569848172737693,-1.9226367589837992,-0.5798428320745188
1499369109858,-0.213626306553806,-2.3498893720911838,-0.45777065690094787
1499369109874,-0.2746623941404778,-2.105745021744042,-0.3967345693140487
1499369109890,-0.03051804379333589,-2.3498893720911838,-0.33569848172737693
1499369109906,-0.09155413138023505,-2.532997634851654,-0.213626306553806
1499369109922,-0.09155413138023505,-2.5940337224383256,-0.213626306553806
1499369109938,-0.09155413138023505,-2.7161058976118966,-0.213626306553806
1499369109954,-0.09155413138023505,-2.7771419851987957,-0.15259021896690683
1499369109970,-0.03051804379333589,-2.7161058976118966,-0.03051804379333589
1499369109986,0.03051804379333589,-2.655069810025225,-0.03051804379333589
1499369110002,-0.09155413138023505,-2.532997634851654,-0.03051804379333589
1499369110018,-0.03051804379333589,-2.4719615472647547,-0.03051804379333589
1499369110034,-0.03051804379333589,-2.410925459678083,-0.09155413138023505
1499369110050,-0.03051804379333589,-2.288853284504512,-0.15259021896690683
1499369110066,-0.09155413138023505,-2.166781109330941,-0.15259021896690683
1499369110082,-0.03051804379333589,-2.105745021744042,-0.09155413138023505
1499369110098,-0.03051804379333589,-2.04470893415737,-0.03051804379333589
1499369110114,0.09155413138023505,-2.105745021744042,0.03051804379333589
1499369110130,0.213626306553806,-2.288853284504512,0.09155413138023505
1499369110146,0.213626306553806,-2.410925459678083,0.213626306553806
1499369110162,0.2746623941404778,-2.5940337224383256,0.213626306553806
1499369110178,0.33569848172737693,-2.655069810025225,0.15259021896690683
1499369110194,0.2746623941404778,-2.655069810025225,0.15259021896690683
1499369110210,0.213626306553806,-2.5940337224383256,0.15259021896690683
1499369110226,0.09155413138023505,-2.5940337224383256,0.09155413138023505
1499369110242,-0.09155413138023505,-2.5940337224383256,-0.03051804379333589
1499369110258,-0.15259021896690683,-2.4719615472647547,-0.15259021896690683
1499369110274,-0.2746623941404778,-2.288853284504512,-0.2746623941404778
1499369110290,-0.2746623941404778,-2.04470893415737,-0.3967345693140487
1499369110306,-0.2746623941404778,-1.9226367589837992,-0.45777065690094787
1499369110322,-0.2746623941404778,-1.739528496223329,-0.5188067444876197
1499369110338,-0.33569848172737693,-1.739528496223329,-0.5188067444876197
1499369110354,-0.3967345693140487,-1.8616006713969,-0.45777065690094787
1499369110370,-0.33569848172737693,-1.9226367589837992,-0.3967345693140487
1499369110386,-0.2746623941404778,-1.983672846570471,-0.33569848172737693
1499369110402,-0.2746623941404778,-2.227817196917613,-0.33569848172737693
1499369110418,-0.2746623941404778,-2.3498893720911838,-0.213626306553806
1499369110434,-0.2746623941404778,-2.410925459678083,-0.213626306553806
1499369110450,-0.213626306553806,-2.410925459678083,-0.2746623941404778
1499369110466,-0.213626306553806,-2.4719615472647547,-0.2746623941404778
1499369110482,-0.15259021896690683,-2.4719615472647547,-0.33569848172737693
1499369110498,-0.15259021896690683,-2.3498893720911838,-0.33569848172737693
1499369110514,-0.213626306553806,-2.288853284504512,-0.3967345693140487
1499369110530,-0.213626306553806,-2.227817196917613,-0.33569848172737693
1499369110546,-0.213626306553806,-2.166781109330941,-0.3967345693140487
1499369110562,-0.213626306553806,-2.166781109330941,-0.3967345693140487
1499369110578,-0.2746623941404778,-2.166781109330941,-0.45777065690094787
1499369110594,-0.2746623941404778,-2.166781109330941,-0.3967345693140487
1499369110610,-0.33569848172737693,-2.166781109330941,-0.3967345693140487
1499369110626,-0.33569848172737693,-2.166781109330941,-0.33569848172737693
1499369110642,-0.33569848172737693,-2.166781109330941,-0.33569848172737693
1499369110658,-0.2746623941404778,-2.166781109330941,-0.33569848172737693
1499369110673,-0.2746623941404778,-2.166781109330941,-0.2746623941404778
1499369110689,-0.09155413138023505,-2.166781109330941,-0.2746623941404778
1499369110705,-0.03051804379333589,-2.166781109330941,-0.213626306553806
1499369110721,-0.03051804379333589,-2.227817196917613,-0.213626306553806
1499369110737,-0.09155413138023505,-2.288853284504512,-0.213626306553806
1499369110753,-0.09155413138023505,-2.410925459678083,-0.15259021896690683
1499369110769,-0.213626306553806,-2.410925459678083,-0.15259021896690683
1499369110785,-0.2746623941404778,-2.410925459678083,-0.15259021896690683
1499369110801,-0.2746623941404778,-2.410925459678083,-0.15259021896690683
1499369110817,-0.33569848172737693,-2.3498893720911838,-0.2746623941404778
1499369110833,-0.213626306553806,-2.288853284504512,-0.2746623941404778
1499369110849,-0.213626306553806,-2.166781109330941,-0.33569848172737693
1499369110865,-0.213626306553806,-2.166781109330941,-0.3967345693140487
1499369110881,-0.2746623941404778,-2.105745021744042,-0.3967345693140487
1499369110897,-0.2746623941404778,-2.105745021744042,-0.3967345693140487
1499369110913,-0.213626306553806,-2.166781109330941,-0.33569848172737693
1499369110929,-0.2746623941404778,-2.166781109330941,-0.2746623941404778
1499369110945,-0.2746623941404778,-2.166781109330941,-0.213626306553806
1499369110961,-0.15259021896690683,-2.227817196917613,-0.2746623941404778
1499369110977,-0.15259021896690683,-2.3498893720911838,-0.2746623941404778
1499369110993,-0.213626306553806,-2.4719615472647547,-0.15259021896690683
1499369111009,-0.213626306553806,-2.4719615472647547,-0.213626306553806
1499369111025,-0.15259021896690683,-2.4719615472647547,-0.15259021896690683
1499369111041,-0.15259021896690683,-2.410925459678083,-0.15259021896690683
1499369111057,-0.09155413138023505,-2.3498893720911838,-0.15259021896690683
1499369111073,-0.09155413138023505,-2.288853284504512,-0.09155413138023505
1499369111089,-0.09155413138023505,-2.288853284504512,-0.09155413138023505
1499369111105,-0.03051804379333589,-2.227817196917613,-0.15259021896690683
1499369111121,-0.09155413138023505,-2.3498893720911838,-0.15259021896690683
1499369111137,-0.03051804379333589,-2.410925459678083,-0.15259021896690683
1499369111153,-0.03051804379333589,-2.410925459678083,-0.15259021896690683
1499369111169,-0.09155413138023505,-2.410925459678083,-0.213626306553806
1499369111185,-0.213626306553806,-2.4719615472647547,-0.2746623941404778
1499369111201,-0.213626306553806,-2.3498893720911838,-0.2746623941404778
1499369111217,-0.15259021896690683,-2.3498893720911838,-0.2746623941404778
1499369111233,-0.15259021896690683,-2.288853284504512,-0.2746623941404778
1499369111249,-0.15259021896690683,-2.288853284504512,-0.2746623941404778
1499369111265,-0.09155413138023505,-2.3498893720911838,-0.213626306553806
1499369111281,-0.09155413138023505,-2.288853284504512,-0.213626306553806
1499369111297,-0.09155413138023505,-2.288853284504512,-0.213626306553806
1499369111313,-0.213626306553806,-2.227817196917613,-0.2746623941404778
1499369111329,-0.33569848172737693,-2.227817196917613,-0.2746623941404778
1499369111345,-0.45777065690094787,-2.227817196917613,-0.2746623941404778
1499369111361,-0.45777065690094787,-2.105745021744042,-0.33569848172737693
1499369111377,-0.45777065690094787,-2.105745021744042,-0.3967345693140487
1499369111393,-0.3967345693140487,-2.04470893415737,-0.45777065690094787
1499369111409,-0.3967345693140487,-1.983672846570471,-0.45777065690094787
1499369111425,-0.2746623941404778,-1.9226367589837992,-0.45777065690094787
1499369111441,-0.2746623941404778,-1.983672846570471,-0.45777065690094787
1499369111457,-0.2746623941404778,-2.04470893415737,-0.33569848172737693
1499369111473,-0.2746623941404778,-2.227817196917613,-0.2746623941404778
1499369111489,-0.2746623941404778,-2.3498893720911838,-0.213626306553806
1499369111505,-0.15259021896690683,-2.4719615472647547,-0.15259021896690683
1499369111521,-0.09155413138023505,-2.532997634851654,-0.15259021896690683
1499369111537,-0.09155413138023505,-2.655069810025225,-0.213626306553806
1499369111553,-0.03051804379333589,-2.7161058976118966,-0.15259021896690683
1499369111569,-0.09155413138023505,-2.655069810025225,-0.15259021896690683
1499369111585,-0.09155413138023505,-2.5940337224383256,-0.15259021896690683
1499369111601,-0.213626306553806,-2.4719615472647547,-0.213626306553806
1499369111617,-0.2746623941404778,-2.3498893720911838,-0.213626306553806
1499369111633,-0.213626306553806,-2.227817196917613,-0.213626306553806
1499369111649,-0.2746623941404778,-2.166781109330941,-0.2746623941404778
1499369111665,-0.213626306553806,-2.105745021744042,-0.3967345693140487
1499369111681,-0.213626306553806,-2.105745021744042,-0.3967345693140487
1499369111697,-0.213626306553806,-2.105745021744042,-0.3967345693140487
1499369111713,-0.213626306553806,-2.166781109330941,-0.33569848172737693
1499369111729,-0.33569848172737693,-2.166781109330941,-0.33569848172737693
1499369111745,-0.45777065690094787,-2.227817196917613,-0.2746623941404778
1499369111761,-0.3967345693140487,-2.3498893720911838,-0.2746623941404778
1499369111777,-0.2746623941404778,-2.3498893720911838,-0.213626306553806
1499369111793,-0.15259021896690683,-2.410925459678083,-0.213626306553806
1499369111809,-0.03051804379333589,-2.4719615472647547,-0.213626306553806
1499369111825,0.03051804379333589,-2.410925459678083,-0.2746623941404778
1499369111841,-0.03051804379333589,-2.3498893720911838,-0.33569848172737693
1499369111857,-0.15259021896690683,-2.3498893720911838,-0.33569848172737693
1499369111873,-0.213626306553806,-2.227817196917613,-0.33569848172737693
1499369111889,-0.33569848172737693,-2.227817196917613,-0.2746623941404778
1499369111904,-0.3967345693140487,-2.227817196917613,-0.2746623941404778
1499369111920,-0.3967345693140487,-2.227817196917613,-0.2746623941404778
1499369111936,-0.2746623941404778,-2.227817196917613,-0.33569848172737693
1499369111952,-0.2746623941404778,-2.227817196917613,-0.3967345693140487
1499369111968,-0.213626306553806,-2.166781109330941,-0.3967345693140487
1499369111984,-0.15259021896690683,-2.105745021744042,-0.3967345693140487
1499369112000,-0.15259021896690683,-2.105745021744042,-0.45777065690094787
1499369112016,-0.213626306553806,-2.166781109330941,-0.3967345693140487
1499369112032,-0.2746623941404778,-2.227817196917613,-0.3967345693140487
1499369112048,-0.2746623941404778,-2.227817196917613,-0.3967345693140487
1499369112064,-0.2746623941404778,-2.227817196917613,-0.2746623941404778
1499369112080,-0.213626306553806,-2.166781109330941,-0.213626306553806
1499369112096,-0.213626306553806,-2.227817196917613,-0.213626306553806
1499369112112,-0.15259021896690683,-2.288853284504512,-0.213626306553806
1499369112128,-0.15259021896690683,-2.288853284504512,-0.15259021896690683
1499369112144,-0.15259021896690683,-2.288853284504512,-0.213626306553806
1499369112160,-0.15259021896690683,-2.3498893720911838,-0.15259021896690683
1499369112176,-0.15259021896690683,-2.3498893720911838,-0.15259021896690683
1499369112192,-0.213626306553806,-2.3498893720911838,-0.15259021896690683
1499369112208,-0.213626306553806,-2.3498893720911838,-0.213626306553806
1499369112224,-0.15259021896690683,-2.410925459678083,-0.2746623941404778
1499369112240,-0.09155413138023505,-2.410925459678083,-0.33569848172737693
1499369112256,-0.09155413138023505,-2.288853284504512,-0.33569848172737693
1499369112272,-0.09155413138023505,-2.166781109330941,-0.33569848172737693
1499369112288,-0.213626306553806,-2.166781109330941,-0.33569848172737693
1499369112304,-0.33569848172737693,-2.166781109330941,-0.2746623941404778
1499369112320,-0.3967345693140487,-2.166781109330941,-0.33569848172737693
1499369112336,-0.3967345693140487,-2.166781109330941,-0.2746623941404778
1499369112352,-0.2746623941404778,-2.227817196917613,-0.2746623941404778
1499369112368,-0.15259021896690683,-2.227817196917613,-0.2746623941404778
1499369112384,-0.03051804379333589,-2.3498893720911838,-0.2746623941404778
1499369112400,0.03051804379333589,-2.3498893720911838,-0.2746623941404778
1499369112416,0.03051804379333589,-2.410925459678083,-0.2746623941404778
1499369112432,-0.03051804379333589,-2.410925459678083,-0.2746623941404778
1499369112448,-0.15259021896690683,-2.3498893720911838,-0.2746623941404778
1499369112464,-0.33569848172737693,-2.288853284504512,-0.2746623941404778
1499369112480,-0.2746623941404778,-2.227817196917613,-0.2746623941404778
1499369112496,-0.2746623941404778,-2.105745021744042,-0.2746623941404778
1499369112512,-0.213626306553806,-2.105745021744042,-0.33569848172737693
1499369112528,-0.15259021896690683,-2.166781109330941,-0.33569848172737693
1499369112544,-0.213626306553806,-2.227817196917613,-0.3967345693140487
1499369112560,-0.213626306553806,-2.227817196917613,-0.3967345693140487
1499369112576,-0.213626306553806,-2.227817196917613,-0.5188067444876197
1499369112592,-0.2746623941404778,-2.166781109330941,-0.45777065690094787
1499369112608,-0.2746623941404778,-2.227817196917613,-0.3967345693140487
1499369112624,-0.213626306553806,-2.227817196917613,-0.33569848172737693
1499369112640,-0.15259021896690683,-2.227817196917613,-0.2746623941404778
1499369112656,-0.15259021896690683,-2.288853284504512,-0.2746623941404778
1499369112672,-0.09155413138023505,-2.288853284504512,-0.213626306553806
1499369112688,-0.09155413138023505,-2.227817196917613,-0.213626306553806
1499369112704,-0.15259021896690683,-2.227817196917613,-0.2746623941404778
1499369112720,-0.2746623941404778,-2.227817196917613,-0.2746623941404778
1499369112736,-0.33569848172737693,-2.166781109330941,-0.33569848172737693
1499369112752,-0.33569848172737693,-2.166781109330941,-0.3967345693140487
1499369112768,-0.33569848172737693,-2.166781109330941,-0.45777065690094787
1499369112784,-0.2746623941404778,-2.105745021744042,-0.5188067444876197
1499369112800,-0.2746623941404778,-2.105745021744042,-0.5188067444876197
1499369112816,-0.2746623941404778,-2.166781109330941,-0.5188067444876197
1499369112832,-0.2746623941404778,-2.166781109330941,-0.5188067444876197
1499369112848,-0.33569848172737693,-2.166781109330941,-0.3967345693140487
1499369112864,-0.3967345693140487,-2.227817196917613,-0.3967345693140487
1499369112880,-0.3967345693140487,-2.227817196917613,-0.3967345693140487
1499369112896,-0.33569848172737693,-2.227817196917613,-0.33569848172737693
1499369112912,-0.33569848172737693,-2.227817196917613,-0.3967345693140487
1499369112928,-0.33569848172737693,-2.3498893720911838,-0.45777065690094787
1499369112944,-0.213626306553806,-2.3498893720911838,-0.45777065690094787
1499369112960,-0.213626306553806,-2.288853284504512,-0.5188067444876197
1499369112976,-0.213626306553806,-2.227817196917613,-0.5188067444876197
1499369112992,-0.2746623941404778,-2.166781109330941,-0.5798428320745188
1499369113008,-0.3967345693140487,-2.04470893415737,-0.5188067444876197
1499369113024,-0.45777065690094787,-1.983672846570471,-0.45777065690094787
1499369113040,-0.45777065690094787,-2.04470893415737,-0.45777065690094787
1499369113056,-0.3967345693140487,-2.04470893415737,-0.45777065690094787
1499369113072,-0.45777065690094787,-1.9226367589837992,-0.3967345693140487
1499369113088,-0.3967345693140487,-2.04470893415737,-0.33569848172737693
1499369113104,-0.3967345693140487,-2.04470893415737,-0.33569848172737693
1499369113120,-0.2746623941404778,-2.04470893415737,-0.33569848172737693
1499369113136,-0.2746623941404778,-2.105745021744042,-0.33569848172737693
1499369113152,-0.213626306553806,-2.166781109330941,-0.33569848172737693
1499369113168,-0.213626306553806,-2.166781109330941,-0.2746623941404778
1499369113184,-0.2746623941404778,-2.105745021744042,-0.2746623941404778
1499369113200,-0.15259021896690683,-2.105745021744042,-0.2746623941404778
1499369113215,-0.09155413138023505,-2.105745021744042,-0.2746623941404778
1499369113231,-0.09155413138023505,-2.105745021744042,-0.213626306553806
1499369113247,-0.03051804379333589,-2.166781109330941,-0.213626306553806
1499369113263,-0.03051804379333589,-2.227817196917613,-0.15259021896690683
1499369113279,-0.09155413138023505,-2.288853284504512,-0.15259021896690683
1499369113295,-0.15259021896690683,-2.3498893720911838,-0.15259021896690683
1499369113311,-0.09155413138023505,-2.3498893720911838,-0.15259021896690683
1499369113327,-0.15259021896690683,-2.3498893720911838,-0.213626306553806
1499369113343,-0.213626306553806,-2.410925459678083,-0.213626306553806
1499369113359,-0.15259021896690683,-2.3498893720911838,-0.213626306553806
1499369113375,-0.09155413138023505,-2.3498893720911838,-0.2746623941404778
1499369113391,-0.213626306553806,-2.288853284504512,-0.2746623941404778
1499369113407,-0.2746623941404778,-2.3498893720911838,-0.2746623941404778
1499369113423,-0.33569848172737693,-2.288853284504512,-0.33569848172737693
1499369113439,-0.33569848172737693,-2.288853284504512,-0.33569848172737693
1499369113455,-0.3967345693140487,-2.3498893720911838,-0.33569848172737693
1499369113471,-0.33569848172737693,-2.3498893720911838,-0.3967345693140487
1499369113487,-0.33569848172737693,-2.410925459678083,-0.3967345693140487
1499369113503,-0.33569848172737693,-2.3498893720911838,-0.3967345693140487
1499369113519,-0.2746623941404778,-2.288853284504512,-0.33569848172737693
1499369113535,-0.15259021896690683,-2.227817196917613,-0.33569848172737693
1499369113551,-0.15259021896690683,-2.288853284504512,-0.2746623941404778
1499369113567,-0.03051804379333589,-2.3498893720911838,-0.213626306553806
1499369113583,-0.03051804379333589,-2.3498893720911838,-0.15259021896690683
1499369113599,-0.03051804379333589,-2.410925459678083,-0.09155413138023505
1499369113615,0.03051804379333589,-2.410925459678083,-0.03051804379333589
1499369113631,0.03051804379333589,-2.410925459678083,0.03051804379333589
1499369113647,0.03051804379333589,-2.410925459678083,0.03051804379333589
1499369113663,0.09155413138023505,-2.410925459678083,0.09155413138023505
1499369113679,0.03051804379333589,-2.4719615472647547,0.03051804379333589
1499369113695,-0.03051804379333589,-2.410925459678083,0.03051804379333589
1499369113711,-0.03051804379333589,-2.3498893720911838,-0.09155413138023505
1499369113727,-0.09155413138023505,-2.288853284504512,-0.15259021896690683
1499369113743,-0.09155413138023505,-2.227817196917613,-0.15259021896690683
1499369113759,-0.09155413138023505,-2.166781109330941,-0.2746623941404778
1499369113775,-0.213626306553806,-2.105745021744042,-0.2746623941404778
1499369113791,-0.213626306553806,-2.166781109330941,-0.33569848172737693
1499369113807,-0.15259021896690683,-2.166781109330941,-0.33569848172737693
1499369113823,-0.213626306553806,-2.166781109330941,-0.33569848172737693
1499369113839,-0.213626306553806,-2.105745021744042,-0.2746623941404778
1499369113855,-0.213626306553806,-2.227817196917613,-0.2746623941404778
1499369113871,-0.213626306553806,-2.166781109330941,-0.213626306553806
1499369113887,-0.15259021896690683,-2.227817196917613,-0.213626306553806
1499369113903,-0.15259021896690683,-2.227817196917613,-0.213626306553806
1499369113919,-0.09155413138023505,-2.227817196917613,-0.213626306553806
1499369113935,-0.09155413138023505,-2.227817196917613,-0.213626306553806
1499369113951,-0.15259021896690683,-2.227817196917613,-0.213626306553806
1499369113967,-0.09155413138023505,-2.166781109330941,-0.2746623941404778
1499369113983,-0.09155413138023505,-2.166781109330941,-0.2746623941404778
1499369113999,-0.09155413138023505,-2.227817196917613,-0.2746623941404778
1499369114015,-0.213626306553806,-2.166781109330941,-0.2746623941404778
1499369114031,-0.213626306553806,-2.227817196917613,-0.213626306553806
1499369114047,-0.2746623941404778,-2.166781109330941,-0.213626306553806
1499369114063,-0.2746623941404778,-2.166781109330941,-0.213626306553806
1499369114079,-0.213626306553806,-2.227817196917613,-0.09155413138023505
1499369114095,-0.15259021896690683,-2.227817196917613,-0.15259021896690683
1499369114111,-0.15259021896690683,-2.227817196917613,-0.15259021896690683
1499369114127,-0.09155413138023505,-2.288853284504512,-0.15259021896690683
1499369114143,-0.03051804379333589,-2.288853284504512,-0.213626306553806
1499369114159,-0.03051804379333589,-2.288853284504512,-0.213626306553806
1499369114175,-0.09155413138023505,-2.288853284504512,-0.213626306553806
1499369114191,-0.213626306553806,-2.3498893720911838,-0.213626306553806
1499369114207,-0.2746623941404778,-2.3498893720911838,-0.213626306553806
1499369114223,-0.33569848172737693,-2.288853284504512,-0.213626306553806
1499369114239,-0.2746623941404778,-2.166781109330941,-0.15259021896690683
1499369114255,-0.213626306553806,-2.166781109330941,-0.213626306553806
1499369114271,-0.2746623941404778,-2.166781109330941,-0.33569848172737693
1499369114287,-0.213626306553806,-2.105745021744042,-0.33569848172737693
1499369114303,-0.2746623941404778,-2.04470893415737,-0.45777065690094787
1499369114319,-0.33569848172737693,-1.983672846570471,-0.45777065690094787
1499369114335,-0.3967345693140487,-1.9226367589837992,-0.45777065690094787
1499369114351,-0.3967345693140487,-1.983672846570471,-0.3967345693140487
1499369114367,-0.2746623941404778,-1.983672846570471,-0.2746623941404778
1499369114383,-0.213626306553806,-2.04470893415737,-0.213626306553806
1499369114399,-0.213626306553806,-2.105745021744042,-0.213626306553806
1499369114415,-0.15259021896690683,-2.227817196917613,-0.15259021896690683
1499369114430,-0.15259021896690683,-2.227817196917613,-0.09155413138023505
1499369114446,-0.15259021896690683,-2.288853284504512,-0.09155413138023505
1499369114462,-0.213626306553806,-2.3498893720911838,-0.15259021896690683
1499369114478,-0.213626306553806,-2.3498893720911838,-0.213626306553806
1499369114494,-0.213626306553806,-2.3498893720911838,-0.213626306553806
1499369114510,-0.213626306553806,-2.410925459678083,-0.33569848172737693
1499369114526,-0.15259021896690683,-2.4719615472647547,-0.33569848172737693
1499369114542,-0.09155413138023505,-2.532997634851654,-0.45777065690094787
1499369114558,-0.03051804379333589,-2.5940337224383256,-0.45777065690094787
1499369114574,-0.09155413138023505,-2.5940337224383256,-0.3967345693140487
1499369114590,-0.09155413138023505,-2.532997634851654,-0.3967345693140487
1499369114606,-0.15259021896690683,-2.4719615472647547,-0.3967345693140487
1499369114622,-0.2746623941404778,-2.410925459678083,-0.33569848172737693
1499369114638,-0.213626306553806,-2.227817196917613,-0.213626306553806
1499369114654,-0.2746623941404778,-2.105745021744042,-0.15259021896690683
1499369114670,-0.2746623941404778,-2.04470893415737,-0.213626306553806
1499369114686,-0.33569848172737693,-1.983672846570471,-0.15259021896690683
1499369114702,-0.213626306553806,-1.983672846570471,-0.09155413138023505
1499369114718,-0.09155413138023505,-2.105745021744042,-0.09155413138023505
1499369114734,-0.03051804379333589,-2.105745021744042,-0.213626306553806
1499369114750,0.03051804379333589,-2.166781109330941,-0.15259021896690683
1499369114766,0.03051804379333589,-2.166781109330941,-0.2746623941404778
1499369114782,-0.15259021896690683,-2.3498893720911838,-0.33569848172737693
1499369114798,-0.2746623941404778,-2.3498893720911838,-0.33569848172737693
1499369114814,-0.2746623941404778,-2.227817196917613,-0.3967345693140487
1499369114830,-0.2746623941404778,-2.3498893720911838,-0.3967345693140487
1499369114846,-0.213626306553806,-2.3498893720911838,-0.3967345693140487
1499369114862,-0.2746623941404778,-2.3498893720911838,-0.3967345693140487
1499369114878,-0.213626306553806,-2.3498893720911838,-0.45777065690094787
1499369114894,-0.213626306553806,-2.288853284504512,-0.3967345693140487
1499369114910,-0.213626306553806,-2.288853284504512,-0.33569848172737693
1499369114926,-0.2746623941404778,-2.288853284504512,-0.33569848172737693
1499369114942,-0.33569848172737693,-2.227817196917613,-0.2746623941404778
1499369114958,-0.2746623941404778,-2.288853284504512,-0.15259021896690683
1499369114974,-0.15259021896690683,-2.288853284504512,-0.213626306553806
1499369114990,-0.15259021896690683,-2.166781109330941,-0.15259021896690683
1499369115006,-0.15259021896690683,-2.166781109330941,-0.213626306553806
1499369115022,-0.03051804379333589,-2.166781109330941,-0.15259021896690683
1499369115038,-0.09155413138023505,-2.166781109330941,-0.15259021896690683
1499369115054,-0.213626306553806,-2.227817196917613,-0.213626306553806
1499369115070,-0.213626306553806,-2.166781109330941,-0.213626306553806
1499369115086,-0.213626306553806,-2.227817196917613,-0.213626306553806
1499369115102,-0.213626306553806,-2.166781109330941,-0.15259021896690683
1499369115118,-0.2746623941404778,-2.227817196917613,-0.2746623941404778
1499369115134,-0.15259021896690683,-2.166781109330941,-0.3967345693140487
1499369115150,-0.09155413138023505,-2.166781109330941,-0.3967345693140487
1499369115166,-0.15259021896690683,-2.227817196917613,-0.3967345693140487
1499369115182,-0.213626306553806,-2.227817196917613,-0.45777065690094787
1499369115198,-0.213626306553806,-2.227817196917613,-0.33569848172737693
1499369115214,-0.2746623941404778,-2.227817196917613,-0.2746623941404778
1499369115230,-0.33569848172737693,-2.227817196917613,-0.2746623941404778
1499369115246,-0.33569848172737693,-2.227817196917613,-0.2746623941404778
1499369115262,-0.213626306553806,-2.288853284504512,-0.213626306553806
1499369115278,-0.15259021896690683,-2.288853284504512,-0.15259021896690683
1499369115294,-0.03051804379333589,-2.227817196917613,-0.15259021896690683
1499369115310,0.03051804379333589,-2.166781109330941,-0.2746623941404778
1499369115326,0.03051804379333589,-2.166781109330941,-0.213626306553806
1499369115342,-0.03051804379333589,-2.166781109330941,-0.213626306553806
1499369115358,-0.15259021896690683,-2.288853284504512,-0.213626306553806
1499369115374,-0.2746623941404778,-2.288853284504512,-0.2746623941404778
1499369115390,-0.2746623941404778,-2.288853284504512,-0.33569848172737693
1499369115406,-0.2746623941404778,-2.166781109330941,-0.33569848172737693
1499369115422,-0.213626306553806,-2.166781109330941,-0.33569848172737693
1499369115438,-0.2746623941404778,-2.166781109330941,-0.45777065690094787
1499369115454,-0.2746623941404778,-2.227817196917613,-0.45777065690094787
1499369115470,-0.213626306553806,-2.166781109330941,-0.45777065690094787
1499369115486,-0.2746623941404778,-2.166781109330941,-0.3967345693140487
1499369115502,-0.2746623941404778,-2.227817196917613,-0.33569848172737693
1499369115518,-0.33569848172737693,-2.288853284504512,-0.2746623941404778
1499369115534,-0.2746623941404778,-2.288853284504512,-0.213626306553806
1499369115550,-0.15259021896690683,-2.3498893720911838,-0.213626306553806
1499369115566,-0.15259021896690683,-2.410925459678083,-0.15259021896690683
1499369115582,-0.15259021896690683,-2.3498893720911838,-0.213626306553806
1499369115598,-0.15259021896690683,-2.3498893720911838,-0.213626306553806
1499369115614,-0.213626306553806,-2.288853284504512,-0.2746623941404778
1499369115630,-0.213626306553806,-2.227817196917613,-0.2746623941404778
1499369115646,-0.213626306553806,-2.227817196917613,-0.213626306553806
1499369115662,-0.09155413138023505,-2.166781109330941,-0.213626306553806
1499369115678,-0.15259021896690683,-2.227817196917613,-0.213626306553806
1499369115694,-0.15259021896690683,-2.288853284504512,-0.2746623941404778
1499369115710,-0.15259021896690683,-2.288853284504512,-0.213626306553806
1499369115725,-0.15259021896690683,-2.288853284504512,-0.213626306553806
1499369115741,-0.213626306553806,-2.288853284504512,-0.213626306553806
1499369115757,-0.213626306553806,-2.288853284504512,-0.2746623941404778
1499369115773,-0.213626306553806,-2.288853284504512,-0.2746623941404778
1499369115789,-0.213626306553806,-2.227817196917613,-0.2746623941404778
1499369115805,-0.213626306553806,-2.166781109330941,-0.2746623941404778
1499369115821,-0.213626306553806,-2.166781109330941,-0.213626306553806
1499369115837,-0.213626306553806,-2.166781109330941,-0.213626306553806
1499369115853,-0.213626306553806,-2.166781109330941,-0.15259021896690683
1499369115869,-0.09155413138023505,-2.166781109330941,-0.213626306553806
1499369115885,-0.03051804379333589,-2.227817196917613,-0.213626306553806
1499369115901,-0.03051804379333589,-2.288853284504512,-0.15259021896690683
1499369115917,-0.03051804379333589,-2.3498893720911838,-0.213626306553806
1499369115933,-0.09155413138023505,-2.3498893720911838,-0.213626306553806
1499369115949,-0.15259021896690683,-2.227817196917613,-0.213626306553806
1499369115965,-0.213626306553806,-2.288853284504512,-0.2746623941404778
1499369115981,-0.2746623941404778,-2.288853284504512,-0.213626306553806
1499369115997,-0.213626306553806,-2.227817196917613,-0.213626306553806
1499369116013,-0.2746623941404778,-2.227817196917613,-0.213626306553806
1499369116029,-0.213626306553806,-2.166781109330941,-0.213626306553806
1499369116045,-0.15259021896690683,-2.166781109330941,-0.15259021896690683
1499369116061,-0.09155413138023505,-2.227817196917613,-0.213626306553806
1499369116077,-0.15259021896690683,-2.288853284504512,-0.15259021896690683
1499369116093,-0.15259021896690683,-2.3498893720911838,-0.2746623941404778
1499369116109,-0.15259021896690683,-2.4719615472647547,-0.2746623941404778
1499369116125,-0.03051804379333589,-2.532997634851654,-0.2746623941404778
1499369116141,0.09155413138023505,-2.5940337224383256,-0.33569848172737693
1499369116157,0.09155413138023505,-2.7161058976118966,-0.3967345693140487
1499369116173,0.09155413138023505,-2.5940337224383256,-0.33569848172737693
1499369116189,0.09155413138023505,-2.4719615472647547,-0.213626306553806
1499369116205,-0.03051804379333589,-2.288853284504512,-0.15259021896690683
1499369116221,-0.213626306553806,-2.166781109330941,-0.15259021896690683
1499369116237,-0.2746623941404778,-2.04470893415737,-0.15259021896690683
1499369116253,-0.33569848172737693,-2.105745021744042,-0.15259021896690683
1499369116269,-0.2746623941404778,-1.983672846570471,-0.15259021896690683
1499369116285,-0.15259021896690683,-1.983672846570471,-0.213626306553806
1499369116301,-0.15259021896690683,-2.105745021744042,-0.2746623941404778
1499369116317,-0.09155413138023505,-2.227817196917613,-0.213626306553806
1499369116333,-0.15259021896690683,-2.288853284504512,-0.213626306553806
1499369116349,-0.15259021896690683,-2.410925459678083,-0.2746623941404778
1499369116365,-0.2746623941404778,-2.4719615472647547,-0.3967345693140487
1499369116381,-0.33569848172737693,-2.532997634851654,-0.2746623941404778
1499369116397,-0.2746623941404778,-2.532997634851654,-0.2746623941404778
1499369116413,-0.2746623941404778,-2.4719615472647547,-0.2746623941404778
1499369116429,-0.2746623941404778,-2.3498893720911838,-0.213626306553806
1499369116445,-0.2746623941404778,-2.227817196917613,-0.213626306553806
1499369116461,-0.33569848172737693,-2.105745021744042,-0.213626306553806
1499369116477,-0.2746623941404778,-1.983672846570471,-0.213626306553806
1499369116493,-0.2746623941404778,-1.8616006713969,-0.213626306553806
1499369116509,-0.2746623941404778,-1.8005645838102282,-0.15259021896690683
1499369116525,-0.3967345693140487,-1.8005645838102282,-0.213626306553806
1499369116541,-0.45777065690094787,-1.9226367589837992,-0.213626306553806
1499369116557,-0.3967345693140487,-2.04470893415737,-0.213626306553806
1499369116573,-0.3967345693140487,-2.105745021744042,-0.213626306553806
1499369116589,-0.3967345693140487,-2.227817196917613,-0.2746623941404778
1499369116605,-0.33569848172737693,-2.227817196917613,-0.33569848172737693
1499369116621,-0.3967345693140487,-2.288853284504512,-0.2746623941404778
1499369116637,-0.33569848172737693,-2.288853284504512,-0.2746623941404778
1499369116653,-0.2746623941404778,-2.166781109330941,-0.2746623941404778
1499369116669,-0.2746623941404778,-2.166781109330941,-0.213626306553806
1499369116685,-0.33569848172737693,-2.166781109330941,-0.15259021896690683
1499369116701,-0.2746623941404778,-2.166781109330941,-0.15259021896690683
1499369116717,-0.213626306553806,-2.227817196917613,-0.15259021896690683
1499369116733,-0.213626306553806,-2.288853284504512,-0.213626306553806
1499369116749,-0.15259021896690683,-2.288853284504512,-0.15259021896690683
1499369116765,-0.15259021896690683,-2.3498893720911838,-0.15259021896690683
1499369116781,-0.213626306553806,-2.3498893720911838,-0.213626306553806
1499369116797,-0.2746623941404778,-2.410925459678083,-0.213626306553806
1499369116813,-0.213626306553806,-2.3498893720911838,-0.213626306553806
1499369116829,-0.213626306553806,-2.410925459678083,-0.213626306553806
1499369116845,-0.213626306553806,-2.410925459678083,-0.213626306553806
1499369116861,-0.213626306553806,-2.410925459678083,-0.213626306553806
1499369116877,-0.15259021896690683,-2.410925459678083,-0.213626306553806
1499369116893,-0.15259021896690683,-2.410925459678083,-0.2746623941404778
1499369116909,-0.15259021896690683,-2.410925459678083,-0.2746623941404778
1499369116925,-0.15259021896690683,-2.410925459678083,-0.2746623941404778
1499369116941,-0.15259021896690683,-2.410925459678083,-0.2746623941404778
1499369116956,-0.09155413138023505,-2.410925459678083,-0.33569848172737693
1499369116972,-0.09155413138023505,-2.532997634851654,-0.3967345693140487
1499369116988,-0.15259021896690683,-2.410925459678083,-0.33569848172737693
1499369117004,-0.213626306553806,-2.3498893720911838,-0.33569848172737693
1499369117020,-0.213626306553806,-2.288853284504512,-0.2746623941404778
1499369117036,-0.2746623941404778,-2.288853284504512,-0.2746623941404778
1499369117052,-0.213626306553806,-2.288853284504512,-0.213626306553806
1499369117068,-0.15259021896690683,-2.288853284504512,-0.33569848172737693
1499369117084,-0.03051804379333589,-2.227817196917613,-0.2746623941404778
1499369117100,0.03051804379333589,-2.288853284504512,-0.2746623941404778
1499369117116,-0.03051804379333589,-2.288853284504512,-0.213626306553806
1499369117132,-0.09155413138023505,-2.227817196917613,-0.213626306553806
1499369117148,-0.2746623941404778,-2.3498893720911838,-0.213626306553806
1499369117164,-0.33569848172737693,-2.3498893720911838,-0.2746623941404778
1499369117180,-0.2746623941404778,-2.3498893720911838,-0.2746623941404778
1499369117196,-0.213626306553806,-2.288853284504512,-0.2746623941404778
1499369117212,-0.213626306553806,-2.288853284504512,-0.33569848172737693
1499369117228,-0.2746623941404778,-2.227817196917613,-0.3967345693140487
1499369117244,-0.2746623941404778,-2.166781109330941,-0.45777065690094787
1499369117260,-0.2746623941404778,-2.166781109330941,-0.45777065690094787
1499369117276,-0.2746623941404778,-2.227817196917613,-0.33569848172737693
1499369117292,-0.3967345693140487,-2.288853284504512,-0.33569848172737693
1499369117308,-0.2746623941404778,-2.288853284504512,-0.2746623941404778
1499369117324,-0.15259021896690683,-2.288853284504512,-0.213626306553806
1499369117340,-0.15259021896690683,-2.227817196917613,-0.213626306553806
1499369117356,-0.15259021896690683,-2.288853284504512,-0.2746623941404778
1499369117372,-0.15259021896690683,-2.288853284504512,-0.15259021896690683
1499369117388,-0.213626306553806,-2.227817196917613,-0.15259021896690683
1499369117404,-0.2746623941404778,-2.288853284504512,-0.15259021896690683
1499369117420,-0.2746623941404778,-2.288853284504512,-0.15259021896690683
1499369117436,-0.33569848172737693,-2.3498893720911838,-0.15259021896690683
1499369117452,-0.213626306553806,-2.288853284504512,-0.213626306553806
1499369117468,-0.09155413138023505,-2.227817196917613,-0.213626306553806
1499369117484,-0.09155413138023505,-2.227817196917613,-0.213626306553806
1499369117500,-0.15259021896690683,-2.227817196917613,-0.2746623941404778
1499369117516,-0.15259021896690683,-2.166781109330941,-0.2746623941404778
1499369117532,-0.213626306553806,-2.166781109330941,-0.33569848172737693
1499369117548,-0.2746623941404778,-2.105745021744042,-0.33569848172737693
1499369117564,-0.2746623941404778,-2.105745021744042,-0.2746623941404778
1499369117580,-0.33569848172737693,-2.166781109330941,-0.213626306553806
1499369117596,-0.2746623941404778,-2.105745021744042,-0.213626306553806
1499369117612,-0.33569848172737693,-2.166781109330941,-0.213626306553806
1499369117628,-0.213626306553806,-2.166781109330941,-0.2746623941404778
1499369117644,-0.15259021896690683,-2.105745021744042,-0.2746623941404778
1499369117660,-0.15259021896690683,-2.105745021744042,-0.33569848172737693
1499369117676,-0.15259021896690683,-2.105745021744042,-0.3967345693140487
1499369117692,-0.213626306553806,-2.227817196917613,-0.33569848172737693
1499369117708,-0.213626306553806,-2.288853284504512,-0.2746623941404778
1499369117724,-0.2746623941404778,-2.288853284504512,-0.213626306553806
1499369117740,-0.33569848172737693,-2.227817196917613,-0.213626306553806
1499369117756,-0.33569848172737693,-2.288853284504512,-0.2746623941404778
1499369117772,-0.33569848172737693,-2.288853284504512,-0.33569848172737693
1499369117788,-0.2746623941404778,-2.288853284504512,-0.2746623941404778
1499369117804,-0.33569848172737693,-2.227817196917613,-0.33569848172737693
1499369117820,-0.33569848172737693,-2.227817196917613,-0.3967345693140487
1499369117836,-0.33569848172737693,-2.166781109330941,-0.33569848172737693
1499369117852,-0.2746623941404778,-2.227817196917613,-0.3967345693140487
1499369117868,-0.213626306553806,-2.288853284504512,-0.33569848172737693
1499369117884,-0.213626306553806,-2.288853284504512,-0.33569848172737693
1499369117900,-0.213626306553806,-2.288853284504512,-0.2746623941404778
1499369117916,-0.15259021896690683,-2.288853284504512,-0.2746623941404778
1499369117932,-0.15259021896690683,-2.3498893720911838,-0.2746623941404778
1499369117948,-0.15259021896690683,-2.3498893720911838,-0.213626306553806
1499369117964,-0.15259021896690683,-2.288853284504512,-0.2746623941404778
1499369117980,-0.15259021896690683,-2.410925459678083,-0.213626306553806
1499369117996,-0.09155413138023505,-2.410925459678083,-0.213626306553806
1499369118012,-0.15259021896690683,-2.410925459678083,-0.213626306553806
1499369118028,-0.213626306553806,-2.3498893720911838,-0.213626306553806
1499369118044,-0.15259021896690683,-2.288853284504512,-0.213626306553806
1499369118060,-0.09155413138023505,-2.3498893720911838,-0.213626306553806
1499369118076,-0.09155413138023505,-2.3498893720911838,-0.213626306553806
1499369118092,-0.09155413138023505,-2.288853284504512,-0.213626306553806
1499369118108,-0.09155413138023505,-2.288853284504512,-0.2746623941404778
1499369118124,-0.15259021896690683,-2.288853284504512,-0.213626306553806
1499369118140,-0.213626306553806,-2.3498893720911838,-0.2746623941404778
1499369118156,-0.213626306553806,-2.3498893720911838,-0.2746623941404778
1499369118172,-0.213626306553806,-2.288853284504512,-0.2746623941404778
1499369118187,-0.213626306553806,-2.288853284504512,-0.213626306553806
1499369118203,-0.2746623941404778,-2.288853284504512,-0.2746623941404778
1499369118219,-0.213626306553806,-2.3498893720911838,-0.213626306553806
1499369118235,-0.09155413138023505,-2.3498893720911838,-0.2746623941404778
1499369118251,0.03051804379333589,-2.3498893720911838,-0.2746623941404778
1499369118267,0.03051804379333589,-2.3498893720911838,-0.33569848172737693
1499369118283,-0.03051804379333589,-2.288853284504512,-0.2746623941404778
1499369118299,-0.03051804379333589,-2.288853284504512,-0.213626306553806
1499369118315,-0.09155413138023505,-2.166781109330941,-0.213626306553806
1499369118331,-0.2746623941404778,-2.166781109330941,-0.213626306553806
1499369118347,-0.2746623941404778,-2.227817196917613,-0.15259021896690683
1499369118363,-0.15259021896690683,-2.227817196917613,-0.213626306553806
1499369118379,-0.15259021896690683,-2.227817196917613,-0.2746623941404778
1499369118395,-0.15259021896690683,-2.227817196917613,-0.33569848172737693
1499369118411,-0.15259021896690683,-2.227817196917613,-0.3967345693140487
1499369118427,-0.15259021896690683,-2.227817196917613,-0.3967345693140487
1499369118443,-0.213626306553806,-2.227817196917613,-0.33569848172737693
1499369118459,-0.213626306553806,-2.227817196917613,-0.2746623941404778
1499369118475,-0.213626306553806,-2.227817196917613,-0.33569848172737693
1499369118491,-0.15259021896690683,-2.166781109330941,-0.2746623941404778
1499369118507,-0.09155413138023505,-2.227817196917613,-0.2746623941404778
1499369118523,-0.15259021896690683,-2.3498893720911838,-0.33569848172737693
1499369118539,-0.09155413138023505,-2.227817196917613,-0.33569848172737693
1499369118555,-0.15259021896690683,-2.166781109330941,-0.2746623941404778
1499369118571,-0.15259021896690683,-2.105745021744042,-0.33569848172737693
1499369118587,-0.33569848172737693,-2.04470893415737,-0.2746623941404778
1499369118603,-0.33569848172737693,-2.105745021744042,-0.213626306553806
1499369118619,-0.2746623941404778,-2.166781109330941,-0.2746623941404778
1499369118635,-0.15259021896690683,-2.227817196917613,-0.33569848172737693
1499369118651,-0.15259021896690683,-2.288853284504512,-0.2746623941404778
1499369118667,-0.09155413138023505,-2.227817196917613,-0.213626306553806
1499369118683,-0.09155413138023505,-2.227817196917613,-0.33569848172737693
1499369118699,-0.15259021896690683,-2.288853284504512,-0.3967345693140487
1499369118715,-0.15259021896690683,-2.3498893720911838,-0.3967345693140487
1499369118731,-0.15259021896690683,-2.3498893720911838,-0.3967345693140487
1499369118747,-0.15259021896690683,-2.288853284504512,-0.3967345693140487
1499369118763,-0.2746623941404778,-2.166781109330941,-0.45777065690094787
1499369118779,-0.2746623941404778,-2.105745021744042,-0.5798428320745188
1499369118795,-0.33569848172737693,-2.04470893415737,-0.5188067444876197
1499369118811,-0.33569848172737693,-2.04470893415737,-0.5798428320745188
1499369118827,-0.33569848172737693,-1.983672846570471,-0.45777065690094787
1499369118843,-0.213626306553806,-2.04470893415737,-0.45777065690094787
1499369118859,-0.15259021896690683,-1.983672846570471,-0.45777065690094787
1499369118875,-0.09155413138023505,-2.166781109330941,-0.3967345693140487
1499369118891,-0.09155413138023505,-2.288853284504512,-0.33569848172737693
1499369118907,-0.03051804379333589,-2.410925459678083,-0.213626306553806
1499369118923,-0.09155413138023505,-2.4719615472647547,-0.09155413138023505
1499369118939,-0.15259021896690683,-2.532997634851654,-0.03051804379333589
1499369118955,-0.09155413138023505,-2.4719615472647547,-0.03051804379333589
1499369118971,-0.09155413138023505,-2.410925459678083,-0.09155413138023505
1499369118987,-0.15259021896690683,-2.3498893720911838,-0.09155413138023505
1499369119003,-0.15259021896690683,-2.288853284504512,-0.15259021896690683
1499369119019,-0.15259021896690683,-2.166781109330941,-0.15259021896690683
1499369119035,-0.15259021896690683,-2.04470893415737,-0.2746623941404778
1499369119051,-0.213626306553806,-2.04470893415737,-0.33569848172737693
1499369119067,-0.2746623941404778,-2.04470893415737,-0.2746623941404778
1499369119083,-0.213626306553806,-2.105745021744042,-0.33569848172737693
1499369119099,-0.213626306553806,-2.105745021744042,-0.33569848172737693
1499369119115,-0.09155413138023505,-2.166781109330941,-0.213626306553806
1499369119131,-0.09155413138023505,-2.227817196917613,-0.213626306553806
1499369119147,-0.15259021896690683,-2.288853284504512,-0.213626306553806
1499369119163,-0.09155413138023505,-2.4719615472647547,-0.213626306553806
1499369119179,-0.09155413138023505,-2.4719615472647547,-0.15259021896690683
1499369119195,-0.09155413138023505,-2.532997634851654,-0.15259021896690683
1499369119211,-0.15259021896690683,-2.4719615472647547,-0.213626306553806
1499369119227,-0.15259021896690683,-2.3498893720911838,-0.2746623941404778
1499369119243,-0.09155413138023505,-2.3498893720911838,-0.213626306553806
1499369119259,-0.09155413138023505,-2.166781109330941,-0.2746623941404778
1499369119275,-0.15259021896690683,-2.166781109330941,-0.33569848172737693
1499369119291,-0.2746623941404778,-2.166781109330941,-0.3967345693140487
1499369119307,-0.213626306553806,-2.105745021744042,-0.33569848172737693
1499369119323,-0.213626306553806,-2.166781109330941,-0.3967345693140487
1499369119339,-0.213626306553806,-2.227817196917613,-0.2746623941404778
1499369119355,-0.213626306553806,-2.227817196917613,-0.2746623941404778
1499369119371,-0.213626306553806,-2.227817196917613,-0.15259021896690683
1499369119387,-0.213626306553806,-2.288853284504512,-0.15259021896690683
1499369119403,-0.15259021896690683,-2.3498893720911838,-0.09155413138023505
1499369119419,-0.09155413138023505,-2.410925459678083,-0.213626306553806
1499369119435,-0.03051804379333589,-2.3498893720911838,-0.213626306553806
1499369119451,0.03051804379333589,-2.227817196917613,-0.2746623941404778
1499369119466,0.15259021896690683,-2.227817196917613,-0.33569848172737693
1499369119482,-0.03051804379333589,-2.227817196917613,-0.33569848172737693
1499369119498,-0.213626306553806,-2.227817196917613,-0.33569848172737693
1499369119514,-0.2746623941404778,-2.227817196917613,-0.33569848172737693
1499369119530,-0.3967345693140487,-2.227817196917613,-0.213626306553806
1499369119546,-0.33569848172737693,-2.288853284504512,-0.213626306553806
1499369119562,-0.213626306553806,-2.3498893720911838,-0.2746623941404778
1499369119578,-0.213626306553806,-2.3498893720911838,-0.33569848172737693
1499369119594,-0.09155413138023505,-2.227817196917613,-0.33569848172737693
1499369119610,-0.09155413138023505,-2.166781109330941,-0.3967345693140487
1499369119626,-0.15259021896690683,-2.166781109330941,-0.2746623941404778
1499369119642,-0.15259021896690683,-2.166781109330941,-0.2746623941404778
1499369119658,-0.2746623941404778,-2.166781109330941,-0.33569848172737693
1499369119674,-0.2746623941404778,-2.105745021744042,-0.2746623941404778
1499369119690,-0.15259021896690683,-2.227817196917613,-0.2746623941404778
1499369119706,-0.09155413138023505,-2.288853284504512,-0.2746623941404778
1499369119722,-0.03051804379333589,-2.3498893720911838,-0.213626306553806
1499369119738,-0.03051804379333589,-2.410925459678083,-0.213626306553806
1499369119754,-0.15259021896690683,-2.3498893720911838,-0.15259021896690683
1499369119770,-0.213626306553806,-2.410925459678083,-0.213626306553806
1499369119786,-0.213626306553806,-2.410925459678083,-0.2746623941404778
1499369119802,-0.213626306553806,-2.410925459678083,-0.2746623941404778
1499369119818,-0.213626306553806,-2.3498893720911838,-0.2746623941404778
1499369119834,-0.15259021896690683,-2.288853284504512,-0.2746623941404778
1499369119850,-0.09155413138023505,-2.3498893720911838,-0.2746623941404778
1499369119866,-0.15259021896690683,-2.288853284504512,-0.33569848172737693
1499369119882,-0.15259021896690683,-2.166781109330941,-0.3967345693140487
1499369119898,-0.15259021896690683,-2.105745021744042,-0.33569848172737693
1499369119914,-0.15259021896690683,-2.166781109330941,-0.33569848172737693
1499369119930,-0.213626306553806,-2.105745021744042,-0.33569848172737693
1499369119946,-0.2746623941404778,-2.105745021744042,-0.33569848172737693
1499369119962,-0.2746623941404778,-2.166781109330941,-0.3967345693140487
1499369119978,-0.213626306553806,-2.288853284504512,-0.33569848172737693
1499369119994,-0.15259021896690683,-2.227817196917613,-0.33569848172737693
1499369120010,-0.213626306553806,-2.227817196917613,-0.33569848172737693
1499369120026,-0.09155413138023505,-2.166781109330941,-0.33569848172737693
1499369120042,-0.09155413138023505,-2.227817196917613,-0.2746623941404778
1499369120058,-0.03051804379333589,-2.227817196917613,-0.213626306553806
1499369120074,-0.03051804379333589,-2.227817196917613,-0.213626306553806
1499369120090,-0.15259021896690683,-2.288853284504512,-0.213626306553806
1499369120106,-0.2746623941404778,-2.288853284504512,-0.2746623941404778
1499369120122,-0.2746623941404778,-2.288853284504512,-0.2746623941404778
1499369120138,-0.2746623941404778,-2.288853284504512,-0.2746623941404778
1499369120154,-0.33569848172737693,-2.288853284504512,-0.33569848172737693
1499369120170,-0.33569848172737693,-2.227817196917613,-0.3967345693140487
1499369120186,-0.33569848172737693,-2.166781109330941,-0.3967345693140487
1499369120202,-0.2746623941404778,-2.105745021744042,-0.3967345693140487
1499369120218,-0.213626306553806,-2.105745021744042,-0.45777065690094787
1499369120234,-0.213626306553806,-2.105745021744042,-0.45777065690094787
1499369120250,-0.213626306553806,-2.04470893415737,-0.45777065690094787
1499369120266,-0.2746623941404778,-2.166781109330941,-0.3967345693140487
1499369120282,-0.213626306553806,-2.166781109330941,-0.33569848172737693
1499369120298,-0.2746623941404778,-2.227817196917613,-0.213626306553806
1499369120314,-0.213626306553806,-2.288853284504512,-0.15259021896690683
1499369120330,-0.213626306553806,-2.3498893720911838,-0.15259021896690683
1499369120346,-0.15259021896690683,-2.4719615472647547,-0.15259021896690683
1499369120362,-0.09155413138023505,-2.4719615472647547,-0.213626306553806
1499369120378,-0.15259021896690683,-2.532997634851654,-0.213626306553806
1499369120394,-0.15259021896690683,-2.410925459678083,-0.213626306553806
1499369120410,-0.15259021896690683,-2.410925459678083,-0.2746623941404778
1499369120426,-0.213626306553806,-2.3498893720911838,-0.2746623941404778
1499369120442,-0.2746623941404778,-2.3498893720911838,-0.213626306553806
1499369120458,-0.2746623941404778,-2.3498893720911838,-0.213626306553806
1499369120474,-0.213626306553806,-2.3498893720911838,-0.2746623941404778
1499369120490,-0.15259021896690683,-2.3498893720911838,-0.2746623941404778
1499369120506,-0.213626306553806,-2.227817196917613,-0.213626306553806
1499369120522,-0.213626306553806,-2.227817196917613,-0.213626306553806
1499369120538,-0.2746623941404778,-2.166781109330941,-0.213626306553806
1499369120554,-0.213626306553806,-2.166781109330941,-0.213626306553806
1499369120570,-0.2746623941404778,-2.288853284504512,-0.213626306553806
1499369120586,-0.15259021896690683,-2.288853284504512,-0.2746623941404778
1499369120602,-0.15259021896690683,-2.227817196917613,-0.213626306553806
1499369120618,-0.15259021896690683,-2.3498893720911838,-0.213626306553806
1499369120634,-0.15259021896690683,-2.3498893720911838,-0.213626306553806
1499369120650,-0.09155413138023505,-2.288853284504512,-0.33569848172737693
1499369120666,-0.15259021896690683,-2.288853284504512,-0.33569848172737693
1499369120682,-0.2746623941404778,-2.227817196917613,-0.33569848172737693
1499369120697,-0.3967345693140487,-2.166781109330941,-0.33569848172737693
1499369120713,-0.3967345693140487,-2.227817196917613,-0.33569848172737693
1499369120729,-0.3967345693140487,-2.227817196917613,-0.3967345693140487
1499369120745,-0.33569848172737693,-2.227817196917613,-0.3967345693140487
1499369120761,-0.33569848172737693,-2.227817196917613,-0.3967345693140487
1499369120777,-0.2746623941404778,-2.166781109330941,-0.33569848172737693
1499369120793,-0.213626306553806,-2.227817196917613,-0.33569848172737693
1499369120809,-0.15259021896690683,-2.227817196917613,-0.33569848172737693
1499369120825,-0.09155413138023505,-2.166781109330941,-0.2746623941404778
1499369120841,-0.09155413138023505,-2.227817196917613,-0.3967345693140487
1499369120857,-0.213626306553806,-2.227817196917613,-0.2746623941404778
1499369120873,-0.2746623941404778,-2.227817196917613,-0.2746623941404778
1499369120889,-0.213626306553806,-2.288853284504512,-0.213626306553806
1499369120905,-0.213626306553806,-2.288853284504512,-0.213626306553806
1499369120921,-0.213626306553806,-2.3498893720911838,-0.09155413138023505
1499369120937,-0.15259021896690683,-2.3498893720911838,-0.15259021896690683
1499369120953,-0.15259021896690683,-2.288853284504512,-0.213626306553806
1499369120969,-0.15259021896690683,-2.288853284504512,-0.2746623941404778
1499369120985,-0.15259021896690683,-2.288853284504512,-0.3967345693140487
1499369121001,-0.213626306553806,-2.166781109330941,-0.45777065690094787
1499369121017,-0.213626306553806,-2.227817196917613,-0.3967345693140487
1499369121033,-0.2746623941404778,-2.227817196917613,-0.33569848172737693
1499369121049,-0.2746623941404778,-2.227817196917613,-0.3967345693140487
1499369121065,-0.2746623941404778,-2.166781109330941,-0.33569848172737693
1499369121081,-0.213626306553806,-2.227817196917613,-0.2746623941404778
1499369121097,-0.2746623941404778,-2.227817196917613,-0.2746623941404778
1499369121113,-0.213626306553806,-2.227817196917613,-0.2746623941404778
1499369121129,-0.213626306553806,-2.288853284504512,-0.213626306553806
1499369121145,-0.15259021896690683,-2.227817196917613,-0.2746623941404778
1499369121161,-0.03051804379333589,-2.227817196917613,-0.2746623941404778
1499369121177,0.03051804379333589,-2.227817196917613,-0.2746623941404778
1499369121193,-0.03051804379333589,-2.288853284504512,-0.2746623941404778
1499369121209,-0.03051804379333589,-2.227817196917613,-0.2746623941404778
1499369121225,-0.09155413138023505,-2.105745021744042,-0.2746623941404778
1499369121241,-0.2746623941404778,-2.105745021744042,-0.2746623941404778
1499369121257,-0.3967345693140487,-1.983672846570471,-0.33569848172737693
1499369121273,-0.5188067444876197,-1.8616006713969,-0.3967345693140487
1499369121289,-0.45777065690094787,-1.8616006713969,-0.33569848172737693
1499369121305,-0.45777065690094787,-1.8005645838102282,-0.3967345693140487
1499369121321,-0.3967345693140487,-1.8005645838102282,-0.45777065690094787
1499369121337,-0.2746623941404778,-1.9226367589837992,-0.5798428320745188
1499369121353,-0.213626306553806,-2.105745021744042,-0.3967345693140487
1499369121369,-0.15259021896690683,-2.227817196917613,-0.33569848172737693
1499369121385,-0.213626306553806,-2.3498893720911838,-0.2746623941404778
1499369121401,-0.213626306553806,-2.532997634851654,-0.2746623941404778
1499369121417,-0.15259021896690683,-2.5940337224383256,-0.213626306553806
1499369121433,-0.09155413138023505,-2.5940337224383256,-0.213626306553806
1499369121449,-0.03051804379333589,-2.532997634851654,-0.09155413138023505
1499369121465,-0.03051804379333589,-2.532997634851654,-0.15259021896690683
1499369121481,0.03051804379333589,-2.410925459678083,-0.15259021896690683
1499369121497,-0.09155413138023505,-2.3498893720911838,-0.15259021896690683
1499369121513,-0.213626306553806,-2.227817196917613,-0.213626306553806
1499369121529,-0.213626306553806,-2.166781109330941,-0.213626306553806
1499369121545,-0.213626306553806,-2.105745021744042,-0.213626306553806
1499369121561,-0.213626306553806,-2.04470893415737,-0.33569848172737693
1499369121577,-0.213626306553806,-2.04470893415737,-0.3967345693140487
1499369121593,-0.213626306553806,-2.04470893415737,-0.45777065690094787
1499369121609,-0.213626306553806,-2.04470893415737,-0.45777065690094787
1499369121625,-0.33569848172737693,-2.105745021744042,-0.3967345693140487
1499369121641,-0.2746623941404778,-2.04470893415737,-0.2746623941404778
1499369121657,-0.33569848172737693,-2.166781109330941,-0.213626306553806
1499369121673,-0.2746623941404778,-2.166781109330941,-0.2746623941404778
1499369121689,-0.2746623941404778,-2.227817196917613,-0.213626306553806
1499369121705,-0.15259021896690683,-2.227817196917613,-0.213626306553806
1499369121721,-0.09155413138023505,-2.288853284504512,-0.213626306553806
1499369121737,0.03051804379333589,-2.288853284504512,-0.33569848172737693
1499369121753,0.03051804379333589,-2.227817196917613,-0.33569848172737693
1499369121769,-0.03051804379333589,-2.227817196917613,-0.33569848172737693
1499369121785,-0.15259021896690683,-2.227817196917613,-0.33569848172737693
1499369121801,-0.2746623941404778,-2.227817196917613,-0.213626306553806
1499369121817,-0.33569848172737693,-2.227817196917613,-0.213626306553806
1499369121833,-0.2746623941404778,-2.227817196917613,-0.213626306553806
1499369121849,-0.2746623941404778,-2.288853284504512,-0.213626306553806
1499369121865,-0.213626306553806,-2.288853284504512,-0.15259021896690683
1499369121881,-0.15259021896690683,-2.3498893720911838,-0.213626306553806
1499369121897,-0.09155413138023505,-2.3498893720911838,-0.213626306553806
1499369121913,-0.09155413138023505,-2.410925459678083,-0.33569848172737693
1499369121929,-0.15259021896690683,-2.3498893720911838,-0.33569848172737693
1499369121945,-0.213626306553806,-2.227817196917613,-0.33569848172737693
1499369121960,-0.213626306553806,-2.166781109330941,-0.33569848172737693
1499369121976,-0.2746623941404778,-2.166781109330941,-0.2746623941404778
1499369121992,-0.213626306553806,-2.227817196917613,-0.213626306553806
1499369122008,-0.15259021896690683,-2.227817196917613,-0.213626306553806
1499369122024,-0.15259021896690683,-2.227817196917613,-0.213626306553806
1499369122040,-0.09155413138023505,-2.227817196917613,-0.213626306553806
1499369122056,-0.03051804379333589,-2.227817196917613,-0.213626306553806
1499369122072,-0.09155413138023505,-2.227817196917613,-0.213626306553806
1499369122088,-0.213626306553806,-2.288853284504512,-0.213626306553806
1499369122104,-0.213626306553806,-2.3498893720911838,-0.15259021896690683
1499369122120,-0.2746623941404778,-2.410925459678083,-0.15259021896690683
1499369122136,-0.213626306553806,-2.410925459678083,-0.2746623941404778
1499369122152,-0.09155413138023505,-2.3498893720911838,-0.2746623941404778
1499369122168,-0.09155413138023505,-2.410925459678083,-0.2746623941404778
1499369122184,-0.09155413138023505,-2.3498893720911838,-0.2746623941404778
1499369122200,-0.15259021896690683,-2.288853284504512,-0.33569848172737693
1499369122216,-0.213626306553806,-2.227817196917613,-0.33569848172737693
1499369122232,-0.2746623941404778,-2.227817196917613,-0.33569848172737693
1499369122248,-0.33569848172737693,-2.227817196917613,-0.33569848172737693
1499369122264,-0.33569848172737693,-2.227817196917613,-0.2746623941404778
1499369122280,-0.33569848172737693,-2.227817196917613,-0.213626306553806
1499369122296,-0.15259021896690683,-2.288853284504512,-0.213626306553806
1499369122312,-0.03051804379333589,-2.410925459678083,-0.2746623941404778
1499369122328,0.03051804379333589,-2.410925459678083,-0.2746623941404778
1499369122344,0.03051804379333589,-2.3498893720911838,-0.2746623941404778
1499369122360,-0.09155413138023505,-2.227817196917613,-0.33569848172737693
1499369122376,-0.15259021896690683,-2.227817196917613,-0.2746623941404778
1499369122392,-0.213626306553806,-2.227817196917613,-0.213626306553806
1499369122408,-0.213626306553806,-2.227817196917613,-0.213626306553806
1499369122424,-0.2746623941404778,-2.288853284504512,-0.213626306553806
1499369122440,-0.213626306553806,-2.288853284504512,-0.213626306553806
1499369122456,-0.2746623941404778,-2.3498893720911838,-0.213626306553806
1499369122472,-0.15259021896690683,-2.3498893720911838,-0.2746623941404778
1499369122488,-0.09155413138023505,-2.3498893720911838,-0.33569848172737693
1499369122504,-0.15259021896690683,-2.288853284504512,-0.33569848172737693
1499369122520,-0.213626306553806,-2.288853284504512,-0.33569848172737693
1499369122536,-0.2746623941404778,-2.166781109330941,-0.33569848172737693
1499369122552,-0.2746623941404778,-2.227817196917613,-0.2746623941404778
1499369122568,-0.213626306553806,-2.288853284504512,-0.213626306553806
1499369122584,-0.15259021896690683,-2.227817196917613,-0.213626306553806
1499369122600,-0.09155413138023505,-2.227817196917613,-0.15259021896690683
1499369122616,-0.09155413138023505,-2.288853284504512,-0.213626306553806
1499369122632,-0.03051804379333589,-2.288853284504512,-0.213626306553806
1499369122648,-0.09155413138023505,-2.288853284504512,-0.213626306553806
1499369122664,-0.213626306553806,-2.3498893720911838,-0.213626306553806
1499369122680,-0.213626306553806,-2.3498893720911838,-0.2746623941404778
1499369122696,-0.213626306553806,-2.3498893720911838,-0.33569848172737693
1499369122712,-0.213626306553806,-2.3498893720911838,-0.2746623941404778
1499369122728,-0.15259021896690683,-2.227817196917613,-0.2746623941404778
1499369122744,-0.09155413138023505,-2.166781109330941,-0.33569848172737693
1499369122760,-0.09155413138023505,-2.227817196917613,-0.2746623941404778
1499369122776,-0.15259021896690683,-2.3498893720911838,-0.33569848172737693
1499369122792,-0.213626306553806,-2.4719615472647547,-0.2746623941404778
1499369122808,-0.15259021896690683,-2.4719615472647547,-0.213626306553806
1499369122824,-0.15259021896690683,-2.4719615472647547,-0.213626306553806
1499369122840,-0.15259021896690683,-2.4719615472647547,-0.15259021896690683
1499369122856,-0.09155413138023505,-2.3498893720911838,-0.09155413138023505
1499369122872,-0.15259021896690683,-2.288853284504512,-0.213626306553806
1499369122888,-0.15259021896690683,-2.227817196917613,-0.2746623941404778
1499369122904,-0.15259021896690683,-2.227817196917613,-0.33569848172737693
1499369122920,-0.15259021896690683,-2.227817196917613,-0.33569848172737693
1499369122936,-0.03051804379333589,-2.166781109330941,-0.33569848172737693
1499369122952,-0.15259021896690683,-2.227817196917613,-0.2746623941404778
1499369122968,-0.213626306553806,-2.227817196917613,-0.2746623941404778
1499369122984,-0.2746623941404778,-2.227817196917613,-0.213626306553806
1499369123000,-0.2746623941404778,-2.227817196917613,-0.213626306553806
1499369123016,-0.213626306553806,-2.288853284504512,-0.213626306553806
1499369123032,-0.2746623941404778,-2.227817196917613,-0.2746623941404778
1499369123048,-0.2746623941404778,-2.227817196917613,-0.2746623941404778
1499369123064,-0.2746623941404778,-2.105745021744042,-0.33569848172737693
1499369123080,-0.2746623941404778,-2.04470893415737,-0.3967345693140487
1499369123096,-0.2746623941404778,-2.105745021744042,-0.3967345693140487
1499369123112,-0.2746623941404778,-2.166781109330941,-0.2746623941404778
1499369123128,-0.2746623941404778,-2.04470893415737,-0.2746623941404778
1499369123144,-0.15259021896690683,-2.04470893415737,-0.33569848172737693
1499369123160,-0.15259021896690683,-2.166781109330941,-0.33569848172737693
1499369123176,-0.213626306553806,-2.166781109330941,-0.2746623941404778
1499369123192,-0.15259021896690683,-2.288853284504512,-0.213626306553806
1499369123208,-0.213626306553806,-2.3498893720911838,-0.213626306553806
1499369123224,-0.2746623941404778,-2.410925459678083,-0.15259021896690683
1499369123239,-0.2746623941404778,-2.4719615472647547,-0.15259021896690683
1499369123255,-0.15259021896690683,-2.4719615472647547,-0.213626306553806
1499369123271,-0.09155413138023505,-2.4719615472647547,-0.15259021896690683
1499369123287,-0.09155413138023505,-2.410925459678083,-0.213626306553806
1499369123303,-0.15259021896690683,-2.288853284504512,-0.213626306553806
1499369123319,-0.09155413138023505,-2.288853284504512,-0.213626306553806
1499369123335,-0.15259021896690683,-2.3498893720911838,-0.213626306553806
1499369123351,-0.213626306553806,-2.227817196917613,-0.213626306553806
1499369123367,-0.2746623941404778,-2.3498893720911838,-0.2746623941404778
1499369123383,-0.2746623941404778,-2.288853284504512,-0.2746623941404778
1499369123399,-0.2746623941404778,-2.288853284504512,-0.2746623941404778
1499369123415,-0.2746623941404778,-2.288853284504512,-0.33569848172737693
1499369123431,-0.2746623941404778,-2.227817196917613,-0.2746623941404778
1499369123447,-0.213626306553806,-2.288853284504512,-0.2746623941404778
1499369123463,-0.15259021896690683,-2.288853284504512,-0.213626306553806
1499369123479,-0.15259021896690683,-2.288853284504512,-0.213626306553806
1499369123495,-0.15259021896690683,-2.288853284504512,-0.213626306553806
1499369123511,-0.09155413138023505,-2.288853284504512,-0.213626306553806
1499369123527,-0.09155413138023505,-2.3498893720911838,-0.213626306553806
1499369123543,-0.15259021896690683,-2.410925459678083,-0.213626306553806
1499369123559,-0.213626306553806,-2.3498893720911838,-0.2746623941404778
1499369123575,-0.33569848172737693,-2.3498893720911838,-0.33569848172737693
1499369123591,-0.2746623941404778,-2.288853284504512,-0.213626306553806
1499369123607,-0.2746623941404778,-2.288853284504512,-0.213626306553806
1499369123623,-0.2746623941404778,-2.3498893720911838,-0.2746623941404778
1499369123639,-0.2746623941404778,-2.3498893720911838,-0.2746623941404778
1499369123655,-0.2746623941404778,-2.3498893720911838,-0.33569848172737693
1499369123671,-0.15259021896690683,-2.288853284504512,-0.3967345693140487
1499369123687,-0.213626306553806,-2.288853284504512,-0.33569848172737693
1499369123703,-0.213626306553806,-2.3498893720911838,-0.3967345693140487
1499369123719,-0.213626306553806,-2.410925459678083,-0.33569848172737693
1499369123735,-0.213626306553806,-2.288853284504512,-0.213626306553806
1499369123751,-0.15259021896690683,-2.288853284504512,-0.213626306553806
1499369123767,-0.213626306553806,-2.288853284504512,-0.15259021896690683
1499369123783,-0.213626306553806,-2.288853284504512,-0.15259021896690683
1499369123799,-0.2746623941404778,-2.288853284504512,-0.15259021896690683
1499369123815,-0.2746623941404778,-2.227817196917613,-0.15259021896690683
1499369123831,-0.213626306553806,-2.288853284504512,-0.213626306553806
1499369123847,-0.2746623941404778,-2.3498893720911838,-0.213626306553806
1499369123863,-0.213626306553806,-2.3498893720911838,-0.2746623941404778
1499369123879,-0.213626306553806,-2.3498893720911838,-0.33569848172737693
1499369123895,-0.15259021896690683,-2.288853284504512,-0.3967345693140487
1499369123911,-0.213626306553806,-2.288853284504512,-0.33569848172737693
1499369123927,-0.213626306553806,-2.3498893720911838,-0.33569848172737693
1499369123943,-0.213626306553806,-2.288853284504512,-0.2746623941404778
1499369123959,-0.2746623941404778,-2.3498893720911838,-0.213626306553806
1499369123975,-0.2746623941404778,-2.3498893720911838,-0.213626306553806
1499369123991,-0.2746623941404778,-2.410925459678083,-0.213626306553806
1499369124007,-0.2746623941404778,-2.410925459678083,-0.213626306553806
1499369124023,-0.15259021896690683,-2.3498893720911838,-0.2746623941404778
1499369124039,-0.03051804379333589,-2.410925459678083,-0.2746623941404778
1499369124055,-0.03051804379333589,-2.410925459678083,-0.2746623941404778
1499369124071,-0.09155413138023505,-2.410925459678083,-0.213626306553806
1499369124087,-0.09155413138023505,-2.410925459678083,-0.213626306553806
1499369124103,-0.2746623941404778,-2.410925459678083,-0.15259021896690683
1499369124119,-0.33569848172737693,-2.3498893720911838,-0.213626306553806
1499369124135,-0.33569848172737693,-2.288853284504512,-0.213626306553806
1499369124151,-0.33569848172737693,-2.227817196917613,-0.2746623941404778
1499369124167,-0.2746623941404778,-2.166781109330941,-0.33569848172737693
1499369124183,-0.33569848172737693,-2.105745021744042,-0.3967345693140487
1499369124199,-0.2746623941404778,-2.105745021744042,-0.3967345693140487
1499369124215,-0.33569848172737693,-2.105745021744042,-0.33569848172737693
1499369124231,-0.2746623941404778,-2.227817196917613,-0.3967345693140487
1499369124247,-0.2746623941404778,-2.288853284504512,-0.33569848172737693
1499369124263,-0.213626306553806,-2.3498893720911838,-0.33569848172737693
1499369124279,-0.213626306553806,-2.410925459678083,-0.2746623941404778
1499369124295,-0.15259021896690683,-2.410925459678083,-0.213626306553806
1499369124311,-0.15259021896690683,-2.3498893720911838,-0.15259021896690683
1499369124327,-0.213626306553806,-2.3498893720911838,-0.213626306553806
1499369124343,-0.09155413138023505,-2.288853284504512,-0.15259021896690683
1499369124359,-0.15259021896690683,-2.288853284504512,-0.15259021896690683
1499369124375,-0.15259021896690683,-2.227817196917613,-0.213626306553806
1499369124391,-0.15259021896690683,-2.227817196917613,-0.15259021896690683
1499369124407,-0.15259021896690683,-2.227817196917613,-0.213626306553806
1499369124423,-0.15259021896690683,-2.227817196917613,-0.2746623941404778
1499369124439,-0.213626306553806,-2.288853284504512,-0.2746623941404778
1499369124455,-0.15259021896690683,-2.3498893720911838,-0.2746623941404778
1499369124471,-0.09155413138023505,-2.288853284504512,-0.2746623941404778
1499369124487,-0.09155413138023505,-2.288853284504512,-0.213626306553806
1499369124502,-0.09155413138023505,-2.288853284504512,-0.2746623941404778
1499369124518,-0.15259021896690683,-2.288853284504512,-0.2746623941404778
1499369124534,-0.15259021896690683,-2.288853284504512,-0.2746623941404778
1499369124550,-0.15259021896690683,-2.227817196917613,-0.213626306553806
1499369124566,-0.2746623941404778,-2.288853284504512,-0.15259021896690683
1499369124582,-0.213626306553806,-2.3498893720911838,-0.15259021896690683
1499369124598,-0.03051804379333589,-2.4719615472647547,-0.09155413138023505
1499369124614,0.03051804379333589,-2.532997634851654,-0.15259021896690683
1499369124630,0.09155413138023505,-2.410925459678083,-0.2746623941404778
1499369124646,0.03051804379333589,-2.410925459678083,-0.213626306553806
1499369124662,-0.03051804379333589,-2.3498893720911838,-0.33569848172737693
1499369124678,-0.09155413138023505,-2.288853284504512,-0.2746623941404778
1499369124694,-0.2746623941404778,-2.227817196917613,-0.2746623941404778
1499369124710,-0.3967345693140487,-2.227817196917613,-0.2746623941404778
1499369124726,-0.3967345693140487,-2.166781109330941,-0.2746623941404778
1499369124742,-0.2746623941404778,-2.166781109330941,-0.2746623941404778
1499369124758,-0.213626306553806,-2.227817196917613,-0.2746623941404778
1499369124774,-0.15259021896690683,-2.227817196917613,-0.3967345693140487
1499369124790,-0.15259021896690683,-2.227817196917613,-0.3967345693140487
1499369124806,-0.15259021896690683,-2.227817196917613,-0.3967345693140487
1499369124822,-0.2746623941404778,-2.288853284504512,-0.3967345693140487
1499369124838,-0.2746623941404778,-2.288853284504512,-0.3967345693140487
1499369124854,-0.33569848172737693,-2.227817196917613,-0.33569848172737693
1499369124870,-0.2746623941404778,-2.227817196917613,-0.2746623941404778
1499369124886,-0.15259021896690683,-2.227817196917613,-0.2746623941404778
1499369124902,-0.09155413138023505,-2.227817196917613,-0.15259021896690683
1499369124918,-0.03051804379333589,-2.288853284504512,-0.213626306553806
1499369124934,-0.03051804379333589,-2.288853284504512,-0.213626306553806
1499369124950,-0.03051804379333589,-2.227817196917613,-0.15259021896690683
1499369124966,-0.15259021896690683,-2.288853284504512,-0.213626306553806
1499369124982,-0.2746623941404778,-2.288853284504512,-0.15259021896690683
1499369124998,-0.213626306553806,-2.288853284504512,-0.213626306553806
1499369125014,-0.15259021896690683,-2.288853284504512,-0.2746623941404778
1499369125030,-0.15259021896690683,-2.288853284504512,-0.33569848172737693
1499369125046,-0.15259021896690683,-2.288853284504512,-0.2746623941404778
1499369125062,-0.15259021896690683,-2.227817196917613,-0.33569848172737693
1499369125078,-0.213626306553806,-2.227817196917613,-0.3967345693140487
1499369125094,-0.213626306553806,-2.166781109330941,-0.33569848172737693
1499369125110,-0.213626306553806,-2.105745021744042,-0.33569848172737693
1499369125126,-0.2746623941404778,-2.105745021744042,-0.2746623941404778
1499369125142,-0.213626306553806,-2.166781109330941,-0.2746623941404778
1499369125158,-0.213626306553806,-2.227817196917613,-0.2746623941404778
1499369125174,-0.15259021896690683,-2.3498893720911838,-0.2746623941404778
1499369125190,-0.09155413138023505,-2.410925459678083,-0.2746623941404778
1499369125206,-0.03051804379333589,-2.410925459678083,-0.2746623941404778
1499369125222,0.03051804379333589,-2.3498893720911838,-0.33569848172737693
1499369125238,0.09155413138023505,-2.288853284504512,-0.213626306553806
1499369125254,-0.09155413138023505,-2.227817196917613,-0.2746623941404778
1499369125270,-0.09155413138023505,-2.288853284504512,-0.2746623941404778
1499369125286,-0.213626306553806,-2.227817196917613,-0.2746623941404778
1499369125302,-0.33569848172737693,-2.166781109330941,-0.213626306553806
1499369125318,-0.2746623941404778,-2.166781109330941,-0.213626306553806
1499369125334,-0.2746623941404778,-2.227817196917613,-0.2746623941404778
1499369125350,-0.2746623941404778,-2.288853284504512,-0.33569848172737693
1499369125366,-0.15259021896690683,-2.288853284504512,-0.33569848172737693
1499369125382,-0.213626306553806,-2.227817196917613,-0.33569848172737693
1499369125398,-0.15259021896690683,-2.227817196917613,-0.33569848172737693
1499369125414,-0.213626306553806,-2.166781109330941,-0.33569848172737693
1499369125430,-0.213626306553806,-2.166781109330941,-0.2746623941404778
1499369125446,-0.213626306553806,-2.227817196917613,-0.33569848172737693
1499369125462,-0.09155413138023505,-2.227817196917613,-0.2746623941404778
1499369125478,-0.09155413138023505,-2.227817196917613,-0.2746623941404778
1499369125494,-0.09155413138023505,-2.288853284504512,-0.213626306553806
1499369125510,-0.09155413138023505,-2.227817196917613,-0.213626306553806
1499369125526,-0.09155413138023505,-2.3498893720911838,-0.15259021896690683
1499369125542,-0.15259021896690683,-2.410925459678083,-0.15259021896690683
1499369125558,-0.2746623941404778,-2.410925459678083,-0.213626306553806
1499369125574,-0.213626306553806,-2.3498893720911838,-0.213626306553806
1499369125590,-0.09155413138023505,-2.3498893720911838,-0.2746623941404778
1499369125606,-0.15259021896690683,-2.288853284504512,-0.33569848172737693
1499369125622,-0.09155413138023505,-2.288853284504512,-0.33569848172737693
1499369125638,-0.213626306553806,-2.227817196917613,-0.33569848172737693
1499369125654,-0.213626306553806,-2.166781109330941,-0.33569848172737693
1499369125670,-0.2746623941404778,-2.227817196917613,-0.33569848172737693
1499369125686,-0.213626306553806,-2.288853284504512,-0.33569848172737693
1499369125702,-0.213626306553806,-2.227817196917613,-0.2746623941404778
1499369125718,-0.213626306553806,-2.227817196917613,-0.213626306553806
1499369125733,-0.213626306553806,-2.3498893720911838,-0.213626306553806
1499369125749,-0.15259021896690683,-2.3498893720911838,-0.213626306553806
1499369125765,-0.09155413138023505,-2.3498893720911838,-0.213626306553806
1499369125781,-0.09155413138023505,-2.3498893720911838,-0.213626306553806
1499369125797,-0.03051804379333589,-2.3498893720911838,-0.15259021896690683
1499369125813,0.03051804379333589,-2.288853284504512,-0.213626306553806
1499369125829,-0.09155413138023505,-2.227817196917613,-0.3967345693140487
1499369125845,-0.15259021896690683,-2.166781109330941,-0.5188067444876197
1499369125861,-0.2746623941404778,-2.04470893415737,-0.45777065690094787
1499369125877,-0.33569848172737693,-1.9226367589837992,-0.3967345693140487
1499369125893,-0.33569848172737693,-1.8005645838102282,-0.3967345693140487
1499369125909,-0.3967345693140487,-1.8005645838102282,-0.33569848172737693
1499369125925,-0.2746623941404778,-1.983672846570471,-0.33569848172737693
1499369125941,-0.2746623941404778,-2.105745021744042,-0.2746623941404778
1499369125957,-0.15259021896690683,-2.288853284504512,-0.213626306553806
1499369125973,-0.09155413138023505,-2.410925459678083,-0.213626306553806
1499369125989,-0.03051804379333589,-2.4719615472647547,-0.15259021896690683
1499369126005,-0.03051804379333589,-2.532997634851654,-0.15259021896690683
1499369126021,0.03051804379333589,-2.5940337224383256,-0.15259021896690683
1499369126037,0.03051804379333589,-2.5940337224383256,-0.15259021896690683
1499369126053,0.03051804379333589,-2.4719615472647547,-0.15259021896690683
1499369126069,-0.03051804379333589,-2.3498893720911838,-0.15259021896690683
1499369126085,-0.15259021896690683,-2.166781109330941,-0.15259021896690683
1499369126101,-0.15259021896690683,-2.04470893415737,-0.09155413138023505
1499369126117,-0.213626306553806,-2.04470893415737,-0.15259021896690683
1499369126133,-0.33569848172737693,-2.105745021744042,-0.213626306553806
1499369126149,-0.33569848172737693,-2.166781109330941,-0.213626306553806
1499369126165,-0.33569848172737693,-2.166781109330941,-0.33569848172737693
1499369126181,-0.2746623941404778,-2.166781109330941,-0.3967345693140487
1499369126197,-0.15259021896690683,-2.227817196917613,-0.45777065690094787
1499369126213,-0.09155413138023505,-2.288853284504512,-0.45777065690094787
1499369126229,-0.15259021896690683,-2.288853284504512,-0.45777065690094787
1499369126245,-0.213626306553806,-2.288853284504512,-0.33569848172737693
1499369126261,-0.213626306553806,-2.3498893720911838,-0.2746623941404778
1499369126277,-0.2746623941404778,-2.3498893720911838,-0.213626306553806
1499369126293,-0.213626306553806,-2.3498893720911838,-0.213626306553806
1499369126309,-0.15259021896690683,-2.288853284504512,-0.213626306553806
1499369126325,-0.03051804379333589,-2.288853284504512,-0.15259021896690683
1499369126341,-0.09155413138023505,-2.288853284504512,-0.09155413138023505
1499369126357,-0.09155413138023505,-2.3498893720911838,-0.09155413138023505
1499369126373,-0.09155413138023505,-2.410925459678083,-0.15259021896690683
1499369126389,0.03051804379333589,-2.227817196917613,-0.15259021896690683
1499369126405,-0.03051804379333589,-2.227817196917613,-0.213626306553806
1499369126421,-0.03051804379333589,-2.04470893415737,-0.2746623941404778
1499369126437,-0.09155413138023505,-2.04470893415737,-0.2746623941404778
1499369126453,-0.213626306553806,-1.983672846570471,-0.2746623941404778
1499369126469,-0.33569848172737693,-2.04470893415737,-0.213626306553806
1499369126485,-0.3967345693140487,-2.105745021744042,-0.213626306553806
1499369126501,-0.33569848172737693,-2.166781109330941,-0.213626306553806
1499369126517,-0.2746623941404778,-2.227817196917613,-0.2746623941404778
1499369126533,-0.2746623941404778,-2.288853284504512,-0.2746623941404778
1499369126549,-0.15259021896690683,-2.410925459678083,-0.33569848172737693
1499369126565,-0.15259021896690683,-2.288853284504512,-0.3967345693140487
1499369126581,-0.213626306553806,-2.3498893720911838,-0.33569848172737693
1499369126597,-0.213626306553806,-2.288853284504512,-0.33569848172737693
1499369126613,-0.213626306553806,-2.3498893720911838,-0.3967345693140487
1499369126629,-0.213626306553806,-2.288853284504512,-0.3967345693140487
1499369126645,-0.15259021896690683,-2.227817196917613,-0.33569848172737693
1499369126661,-0.15259021896690683,-2.227817196917613,-0.33569848172737693
1499369126677,-0.213626306553806,-2.227817196917613,-0.213626306553806
1499369126693,-0.15259021896690683,-2.166781109330941,-0.213626306553806
1499369126709,-0.213626306553806,-2.288853284504512,-0.213626306553806
1499369126725,-0.213626306553806,-2.3498893720911838,-0.213626306553806
1499369126741,-0.213626306553806,-2.3498893720911838,-0.213626306553806
1499369126757,-0.15259021896690683,-2.3498893720911838,-0.213626306553806
1499369126773,-0.213626306553806,-2.3498893720911838,-0.2746623941404778
1499369126789,-0.15259021896690683,-2.288853284504512,-0.2746623941404778
1499369126805,-0.15259021896690683,-2.3498893720911838,-0.2746623941404778
1499369126821,-0.09155413138023505,-2.288853284504512,-0.2746623941404778
1499369126837,-0.15259021896690683,-2.227817196917613,-0.2746623941404778
1499369126853,-0.213626306553806,-2.166781109330941,-0.2746623941404778
1499369126869,-0.2746623941404778,-2.227817196917613,-0.2746623941404778
1499369126885,-0.2746623941404778,-2.227817196917613,-0.2746623941404778
1499369126901,-0.213626306553806,-2.166781109330941,-0.2746623941404778
1499369126917,-0.213626306553806,-2.227817196917613,-0.2746623941404778
1499369126933,-0.213626306553806,-2.288853284504512,-0.2746623941404778
1499369126949,-0.15259021896690683,-2.288853284504512,-0.213626306553806
1499369126965,-0.15259021896690683,-2.3498893720911838,-0.213626306553806
1499369126981,-0.09155413138023505,-2.3498893720911838,-0.2746623941404778
1499369126996,-0.03051804379333589,-2.288853284504512,-0.213626306553806
1499369127012,-0.03051804379333589,-2.288853284504512,-0.213626306553806
1499369127028,-0.15259021896690683,-2.288853284504512,-0.213626306553806
1499369127044,-0.15259021896690683,-2.288853284504512,-0.213626306553806
1499369127060,-0.2746623941404778,-2.227817196917613,-0.213626306553806
1499369127076,-0.2746623941404778,-2.288853284504512,-0.213626306553806
1499369127092,-0.2746623941404778,-2.227817196917613,-0.15259021896690683
1499369127108,-0.33569848172737693,-2.227817196917613,-0.213626306553806
1499369127124,-0.33569848172737693,-2.227817196917613,-0.2746623941404778
1499369127140,-0.2746623941404778,-2.166781109330941,-0.3967345693140487
1499369127156,-0.2746623941404778,-2.105745021744042,-0.3967345693140487
1499369127172,-0.2746623941404778,-2.105745021744042,-0.3967345693140487
1499369127188,-0.2746623941404778,-2.105745021744042,-0.3967345693140487
1499369127204,-0.2746623941404778,-2.166781109330941,-0.33569848172737693
1499369127220,-0.2746623941404778,-2.227817196917613,-0.2746623941404778
1499369127236,-0.213626306553806,-2.288853284504512,-0.213626306553806
1499369127252,-0.15259021896690683,-2.3498893720911838,-0.15259021896690683
1499369127268,-0.15259021896690683,-2.288853284504512,-0.09155413138023505
1499369127284,-0.03051804379333589,-2.3498893720911838,-0.09155413138023505
1499369127300,-0.03051804379333589,-2.410925459678083,-0.09155413138023505
1499369127316,-0.09155413138023505,-2.3498893720911838,-0.213626306553806
1499369127332,-0.09155413138023505,-2.3498893720911838,-0.213626306553806
1499369127348,-0.15259021896690683,-2.3498893720911838,-0.15259021896690683
1499369127364,-0.213626306553806,-2.3498893720911838,-0.15259021896690683
1499369127380,-0.213626306553806,-2.3498893720911838,-0.213626306553806
1499369127396,-0.213626306553806,-2.227817196917613,-0.213626306553806
1499369127412,-0.2746623941404778,-2.166781109330941,-0.2746623941404778
1499369127428,-0.213626306553806,-2.166781109330941,-0.2746623941404778
1499369127444,-0.213626306553806,-2.105745021744042,-0.2746623941404778
1499369127460,-0.213626306553806,-2.04470893415737,-0.2746623941404778
1499369127476,-0.213626306553806,-2.04470893415737,-0.213626306553806
1499369127492,-0.33569848172737693,-2.166781109330941,-0.213626306553806
1499369127508,-0.2746623941404778,-2.288853284504512,-0.213626306553806
1499369127524,-0.213626306553806,-2.3498893720911838,-0.15259021896690683
1499369127540,-0.09155413138023505,-2.4719615472647547,-0.15259021896690683
1499369127556,-0.03051804379333589,-2.532997634851654,-0.15259021896690683
1499369127572,0.09155413138023505,-2.4719615472647547,-0.213626306553806
1499369127588,0.09155413138023505,-2.4719615472647547,-0.213626306553806
1499369127604,-0.09155413138023505,-2.4719615472647547,-0.213626306553806
1499369127620,-0.2746623941404778,-2.410925459678083,-0.213626306553806
1499369127636,-0.3967345693140487,-2.227817196917613,-0.213626306553806
1499369127652,-0.33569848172737693,-2.105745021744042,-0.2746623941404778
1499369127668,-0.33569848172737693,-2.04470893415737,-0.33569848172737693
1499369127684,-0.33569848172737693,-1.983672846570471,-0.2746623941404778
1499369127700,-0.2746623941404778,-1.983672846570471,-0.33569848172737693
1499369127716,-0.213626306553806,-1.983672846570471,-0.3967345693140487
1499369127732,-0.15259021896690683,-2.04470893415737,-0.3967345693140487
1499369127748,-0.15259021896690683,-2.04470893415737,-0.33569848172737693
1499369127764,-0.213626306553806,-2.166781109330941,-0.33569848172737693
1499369127780,-0.213626306553806,-2.166781109330941,-0.33569848172737693
1499369127796,-0.15259021896690683,-2.227817196917613,-0.213626306553806
1499369127812,-0.15259021896690683,-2.3498893720911838,-0.213626306553806
1499369127828,-0.15259021896690683,-2.410925459678083,-0.15259021896690683
1499369127844,-0.09155413138023505,-2.3498893720911838,-0.15259021896690683
1499369127860,-0.03051804379333589,-2.410925459678083,-0.15259021896690683
1499369127876,-0.03051804379333589,-2.3498893720911838,-0.15259021896690683
1499369127892,-0.09155413138023505,-2.3498893720911838,-0.15259021896690683
1499369127908,-0.15259021896690683,-2.288853284504512,-0.213626306553806
1499369127924,-0.213626306553806,-2.227817196917613,-0.213626306553806
1499369127940,-0.213626306553806,-2.166781109330941,-0.2746623941404778
1499369127956,-0.213626306553806,-2.166781109330941,-0.33569848172737693
1499369127972,-0.15259021896690683,-2.105745021744042,-0.33569848172737693
1499369127988,-0.15259021896690683,-2.04470893415737,-0.3967345693140487
1499369128004,-0.15259021896690683,-2.04470893415737,-0.45777065690094787
1499369128020,-0.33569848172737693,-2.105745021744042,-0.3967345693140487
1499369128036,-0.33569848172737693,-2.105745021744042,-0.33569848172737693
1499369128052,-0.2746623941404778,-2.166781109330941,-0.2746623941404778
1499369128068,-0.2746623941404778,-2.227817196917613,-0.2746623941404778
1499369128084,-0.2746623941404778,-2.410925459678083,-0.213626306553806
1499369128100,-0.15259021896690683,-2.4719615472647547,-0.213626306553806
1499369128116,-0.03051804379333589,-2.4719615472647547,-0.213626306553806
1499369128132,0.03051804379333589,-2.3498893720911838,-0.213626306553806
1499369128148,0.03051804379333589,-2.3498893720911838,-0.2746623941404778
1499369128164,-0.03051804379333589,-2.288853284504512,-0.33569848172737693
1499369128180,-0.09155413138023505,-2.166781109330941,-0.2746623941404778
1499369128196,-0.2746623941404778,-2.166781109330941,-0.2746623941404778
1499369128212,-0.2746623941404778,-2.04470893415737,-0.2746623941404778
1499369128228,-0.33569848172737693,-2.04470893415737,-0.2746623941404778
1499369128244,-0.3967345693140487,-2.04470893415737,-0.2746623941404778
1499369128260,-0.33569848172737693,-2.105745021744042,-0.33569848172737693
1499369128275,-0.213626306553806,-2.227817196917613,-0.3967345693140487
1499369128291,-0.15259021896690683,-2.166781109330941,-0.3967345693140487
1499369128307,-0.15259021896690683,-2.166781109330941,-0.45777065690094787
1499369128323,-0.15259021896690683,-2.227817196917613,-0.45777065690094787
1499369128339,-0.2746623941404778,-2.288853284504512,-0.3967345693140487
1499369128355,-0.2746623941404778,-2.288853284504512,-0.33569848172737693
1499369128371,-0.213626306553806,-2.227817196917613,-0.2746623941404778
1499369128387,-0.15259021896690683,-2.3498893720911838,-0.2746623941404778
1499369128403,-0.15259021896690683,-2.227817196917613,-0.2746623941404778
1499369128419,-0.09155413138023505,-2.227817196917613,-0.2746623941404778
1499369128435,-0.03051804379333589,-2.227817196917613,-0.213626306553806
1499369128451,-0.09155413138023505,-2.166781109330941,-0.2746623941404778
1499369128467,-0.09155413138023505,-2.105745021744042,-0.213626306553806
1499369128483,-0.15259021896690683,-2.227817196917613,-0.213626306553806
1499369128499,-0.213626306553806,-2.288853284504512,-0.213626306553806
1499369128515,-0.213626306553806,-2.288853284504512,-0.213626306553806
1499369128531,-0.15259021896690683,-2.227817196917613,-0.15259021896690683
1499369128547,-0.09155413138023505,-2.227817196917613,-0.2746623941404778
1499369128563,-0.03051804379333589,-2.227817196917613,-0.2746623941404778
1499369128579,-0.15259021896690683,-2.227817196917613,-0.2746623941404778
1499369128595,-0.2746623941404778,-2.227817196917613,-0.33569848172737693
1499369128611,-0.15259021896690683,-2.166781109330941,-0.33569848172737693
1499369128627,-0.213626306553806,-2.105745021744042,-0.33569848172737693
1499369128643,-0.213626306553806,-2.105745021744042,-0.2746623941404778
1499369128659,-0.213626306553806,-2.166781109330941,-0.2746623941404778
1499369128675,-0.213626306553806,-2.166781109330941,-0.33569848172737693
1499369128691,-0.09155413138023505,-2.227817196917613,-0.2746623941404778
1499369128707,-0.03051804379333589,-2.288853284504512,-0.213626306553806
1499369128723,-0.03051804379333589,-2.3498893720911838,-0.2746623941404778
1499369128739,0.03051804379333589,-2.3498893720911838,-0.213626306553806
1499369128755,-0.09155413138023505,-2.3498893720911838,-0.213626306553806
1499369128771,-0.15259021896690683,-2.3498893720911838,-0.2746623941404778
1499369128787,-0.213626306553806,-2.288853284504512,-0.213626306553806
1499369128803,-0.2746623941404778,-2.227817196917613,-0.2746623941404778
1499369128819,-0.213626306553806,-2.227817196917613,-0.2746623941404778
1499369128835,-0.213626306553806,-2.166781109330941,-0.2746623941404778
1499369128851,-0.15259021896690683,-2.166781109330941,-0.33569848172737693
1499369128867,-0.213626306553806,-2.105745021744042,-0.33569848172737693
1499369128883,-0.15259021896690683,-2.166781109330941,-0.2746623941404778
1499369128899,-0.213626306553806,-2.166781109330941,-0.2746623941404778
1499369128915,-0.213626306553806,-2.166781109330941,-0.33569848172737693
1499369128931,-0.213626306553806,-2.166781109330941,-0.2746623941404778
1499369128947,-0.15259021896690683,-2.166781109330941,-0.33569848172737693
1499369128963,-0.09155413138023505,-2.166781109330941,-0.2746623941404778
1499369128979,-0.09155413138023505,-2.227817196917613,-0.2746623941404778
1499369128995,-0.09155413138023505,-2.166781109330941,-0.2746623941404778
1499369129011,-0.213626306553806,-2.227817196917613,-0.213626306553806
1499369129027,-0.213626306553806,-2.288853284504512,-0.213626306553806
1499369129043,-0.15259021896690683,-2.288853284504512,-0.15259021896690683
1499369129059,-0.213626306553806,-2.3498893720911838,-0.15259021896690683
1499369129075,-0.15259021896690683,-2.288853284504512,-0.213626306553806
1499369129091,-0.09155413138023505,-2.288853284504512,-0.2746623941404778
1499369129107,-0.15259021896690683,-2.3498893720911838,-0.2746623941404778
1499369129123,-0.09155413138023505,-2.288853284504512,-0.213626306553806
1499369129139,-0.09155413138023505,-2.3498893720911838,-0.213626306553806
1499369129155,-0.15259021896690683,-2.288853284504512,-0.2746623941404778
1499369129171,-0.213626306553806,-2.288853284504512,-0.2746623941404778
1499369129187,-0.15259021896690683,-2.166781109330941,-0.2746623941404778
1499369129203,-0.213626306553806,-2.166781109330941,-0.213626306553806
1499369129219,-0.213626306553806,-2.227817196917613,-0.2746623941404778
1499369129235,-0.2746623941404778,-2.227817196917613,-0.15259021896690683
1499369129251,-0.213626306553806,-2.227817196917613,-0.09155413138023505
1499369129267,-0.15259021896690683,-2.288853284504512,-0.15259021896690683
1499369129283,-0.15259021896690683,-2.288853284504512,-0.213626306553806
1499369129299,-0.213626306553806,-2.227817196917613,-0.2746623941404778
1499369129315,-0.09155413138023505,-2.227817196917613,-0.2746623941404778
1499369129331,-0.09155413138023505,-2.166781109330941,-0.33569848172737693
1499369129347,-0.03051804379333589,-2.166781109330941,-0.33569848172737693
1499369129363,-0.09155413138023505,-2.105745021744042,-0.33569848172737693
1499369129379,-0.213626306553806,-2.105745021744042,-0.33569848172737693
1499369129395,-0.213626306553806,-2.04470893415737,-0.33569848172737693
1499369129411,-0.2746623941404778,-2.227817196917613,-0.2746623941404778
1499369129427,-0.213626306553806,-2.227817196917613,-0.213626306553806
1499369129443,-0.15259021896690683,-2.227817196917613,-0.213626306553806
1499369129459,-0.09155413138023505,-2.288853284504512,-0.213626306553806
1499369129475,-0.09155413138023505,-2.3498893720911838,-0.213626306553806
1499369129491,-0.03051804379333589,-2.410925459678083,-0.213626306553806
1499369129506,-0.15259021896690683,-2.410925459678083,-0.213626306553806
1499369129522,-0.213626306553806,-2.288853284504512,-0.213626306553806
1499369129538,-0.15259021896690683,-2.166781109330941,-0.2746623941404778
1499369129554,-0.09155413138023505,-2.105745021744042,-0.2746623941404778
1499369129570,-0.15259021896690683,-2.105745021744042,-0.2746623941404778
1499369129586,-0.15259021896690683,-2.04470893415737,-0.33569848172737693
1499369129602,-0.213626306553806,-2.04470893415737,-0.33569848172737693
1499369129618,-0.213626306553806,-2.105745021744042,-0.33569848172737693
1499369129634,-0.15259021896690683,-2.105745021744042,-0.33569848172737693
1499369129650,-0.15259021896690683,-2.227817196917613,-0.2746623941404778
1499369129666,-0.213626306553806,-2.288853284504512,-0.213626306553806
1499369129682,-0.213626306553806,-2.288853284504512,-0.213626306553806
1499369129698,-0.15259021896690683,-2.3498893720911838,-0.15259021896690683
1499369129714,-0.09155413138023505,-2.288853284504512,-0.15259021896690683
1499369129730,-0.09155413138023505,-2.3498893720911838,-0.15259021896690683
1499369129746,-0.03051804379333589,-2.288853284504512,-0.15259021896690683
1499369129762,-0.15259021896690683,-2.227817196917613,-0.213626306553806
1499369129778,-0.15259021896690683,-2.288853284504512,-0.213626306553806
1499369129794,-0.15259021896690683,-2.227817196917613,-0.2746623941404778
1499369129810,-0.2746623941404778,-2.227817196917613,-0.2746623941404778
1499369129826,-0.2746623941404778,-2.227817196917613,-0.2746623941404778
1499369129842,-0.213626306553806,-2.166781109330941,-0.2746623941404778
1499369129858,-0.213626306553806,-2.105745021744042,-0.33569848172737693
1499369129874,-0.2746623941404778,-2.105745021744042,-0.2746623941404778
1499369129890,-0.213626306553806,-2.166781109330941,-0.213626306553806
1499369129906,-0.15259021896690683,-2.166781109330941,-0.2746623941404778
1499369129922,-0.15259021896690683,-2.227817196917613,-0.2746623941404778
1499369129938,-0.03051804379333589,-2.166781109330941,-0.2746623941404778
1499369129954,0.03051804379333589,-2.227817196917613,-0.33569848172737693
1499369129970,-0.03051804379333589,-2.288853284504512,-0.33569848172737693
1499369129986,-0.15259021896690683,-2.288853284504512,-0.2746623941404778
1499369130002,-0.2746623941404778,-2.288853284504512,-0.2746623941404778
1499369130018,-0.213626306553806,-2.288853284504512,-0.213626306553806
1499369130034,-0.2746623941404778,-2.227817196917613,-0.15259021896690683
1499369130050,-0.213626306553806,-2.227817196917613,-0.33569848172737693
1499369130066,-0.213626306553806,-2.227817196917613,-0.2746623941404778
1499369130082,-0.213626306553806,-2.166781109330941,-0.33569848172737693
1499369130098,-0.213626306553806,-2.105745021744042,-0.3967345693140487
1499369130114,-0.2746623941404778,-2.105745021744042,-0.45777065690094787
1499369130130,-0.213626306553806,-2.04470893415737,-0.3967345693140487
1499369130146,-0.213626306553806,-2.04470893415737,-0.3967345693140487
1499369130162,-0.2746623941404778,-2.166781109330941,-0.3967345693140487
1499369130178,-0.213626306553806,-2.227817196917613,-0.33569848172737693
1499369130194,-0.213626306553806,-2.288853284504512,-0.2746623941404778
1499369130210,-0.15259021896690683,-2.227817196917613,-0.213626306553806
1499369130226,-0.03051804379333589,-2.288853284504512,-0.15259021896690683
1499369130242,-0.03051804379333589,-2.4719615472647547,-0.15259021896690683
1499369130258,-0.09155413138023505,-2.4719615472647547,-0.15259021896690683
1499369130274,-0.03051804379333589,-2.410925459678083,-0.15259021896690683
1499369130290,-0.15259021896690683,-2.3498893720911838,-0.15259021896690683
1499369130306,-0.213626306553806,-2.3498893720911838,-0.213626306553806
1499369130322,-0.213626306553806,-2.227817196917613,-0.213626306553806
1499369130338,-0.15259021896690683,-2.166781109330941,-0.213626306553806
1499369130354,-0.213626306553806,-2.105745021744042,-0.2746623941404778
1499369130370,-0.33569848172737693,-2.105745021744042,-0.3967345693140487
1499369130386,-0.2746623941404778,-1.983672846570471,-0.3967345693140487
1499369130402,-0.33569848172737693,-1.983672846570471,-0.3967345693140487
1499369130418,-0.2746623941404778,-2.105745021744042,-0.33569848172737693
1499369130434,-0.2746623941404778,-2.166781109330941,-0.2746623941404778
1499369130450,-0.213626306553806,-2.227817196917613,-0.2746623941404778
1499369130466,-0.213626306553806,-2.227817196917613,-0.2746623941404778
1499369130482,-0.15259021896690683,-2.3498893720911838,-0.213626306553806
1499369130498,-0.09155413138023505,-2.288853284504512,-0.213626306553806
1499369130514,-0.09155413138023505,-2.3498893720911838,-0.213626306553806
1499369130530,-0.03051804379333589,-2.3498893720911838,-0.213626306553806
1499369130546,0.03051804379333589,-2.288853284504512,-0.2746623941404778
1499369130562,-0.03051804379333589,-2.288853284504512,-0.213626306553806
1499369130578,-0.03051804379333589,-2.288853284504512,-0.2746623941404778
1499369130594,-0.15259021896690683,-2.227817196917613,-0.2746623941404778
1499369130610,-0.213626306553806,-2.166781109330941,-0.213626306553806
1499369130626,-0.2746623941404778,-2.227817196917613,-0.213626306553806
1499369130642,-0.213626306553806,-2.166781109330941,-0.213626306553806
1499369130658,-0.2746623941404778,-2.227817196917613,-0.213626306553806
1499369130674,-0.2746623941404778,-2.166781109330941,-0.33569848172737693
1499369130690,-0.2746623941404778,-2.105745021744042,-0.33569848172737693
1499369130706,-0.213626306553806,-2.105745021744042,-0.33569848172737693
1499369130722,-0.2746623941404778,-2.166781109330941,-0.33569848172737693
1499369130738,-0.33569848172737693,-2.166781109330941,-0.3967345693140487
1499369130754,-0.33569848172737693,-2.227817196917613,-0.33569848172737693
1499369130769,-0.213626306553806,-2.166781109330941,-0.33569848172737693
1499369130785,-0.213626306553806,-2.166781109330941,-0.2746623941404778
1499369130801,-0.213626306553806,-2.166781109330941,-0.213626306553806
1499369130817,-0.15259021896690683,-2.227817196917613,-0.213626306553806
1499369130833,-0.213626306553806,-2.227817196917613,-0.15259021896690683
1499369130849,-0.213626306553806,-2.227817196917613,-0.09155413138023505
1499369130865,-0.15259021896690683,-2.227817196917613,-0.15259021896690683
1499369130881,-0.2746623941404778,-2.3498893720911838,-0.15259021896690683
1499369130897,-0.2746623941404778,-2.410925459678083,-0.2746623941404778
1499369130913,-0.15259021896690683,-2.532997634851654,-0.2746623941404778
1499369130929,-0.09155413138023505,-2.532997634851654,-0.3967345693140487
1499369130945,-0.03051804379333589,-2.4719615472647547,-0.3967345693140487
1499369130961,-0.03051804379333589,-2.3498893720911838,-0.3967345693140487
1499369130977,-0.03051804379333589,-2.227817196917613,-0.45777065690094787
1499369130993,-0.15259021896690683,-2.105745021744042,-0.3967345693140487
1499369131009,-0.213626306553806,-1.983672846570471,-0.2746623941404778
1499369131025,-0.2746623941404778,-1.8616006713969,-0.15259021896690683
1499369131041,-0.3967345693140487,-1.739528496223329,-0.15259021896690683
1499369131057,-0.33569848172737693,-1.5564202334630863,-0.09155413138023505
1499369131073,-0.213626306553806,-1.4343480582895154,-0.09155413138023505
1499369131089,0.03051804379333589,-1.3122758831159445,0.09155413138023505
1499369131105,0.09155413138023505,-1.3733119707026162,0.213626306553806
1499369131121,0.15259021896690683,-1.4343480582895154,0.2746623941404778
1499369131137,0.15259021896690683,-1.6784924086366573,0.33569848172737693
1499369131153,-0.09155413138023505,-1.8616006713969,0.33569848172737693
1499369131169,-0.15259021896690683,-1.8616006713969,0.33569848172737693
1499369131185,-0.09155413138023505,-1.8616006713969,0.2746623941404778
1499369131201,-0.15259021896690683,-1.8005645838102282,0.15259021896690683
1499369131217,-0.45777065690094787,-1.9226367589837992,-0.213626306553806
1499369131233,-0.6408789196611906,-1.983672846570471,-0.45777065690094787
1499369131249,-0.45777065690094787,-1.983672846570471,-0.5798428320745188
1499369131265,-0.09155413138023505,-1.8616006713969,-0.45777065690094787
1499369131281,0.213626306553806,-1.8005645838102282,-0.2746623941404778
1499369131297,0.45777065690094787,-1.739528496223329,-0.03051804379333589
1499369131313,0.5798428320745188,-1.983672846570471,0.213626306553806
1499369131329,0.45777065690094787,-2.288853284504512,0.3967345693140487
1499369131345,0.33569848172737693,-2.5940337224383256,0.2746623941404778
1499369131361,0.15259021896690683,-2.9602502479590385,0.09155413138023505
1499369131377,0.03051804379333589,-3.2654306858930795,-0.213626306553806
1499369131393,0.09155413138023505,-3.4485389486533222,-0.5188067444876197
1499369131409,0.15259021896690683,-3.4485389486533222,-0.6408789196611906
1499369131425,0.15259021896690683,-3.3875028610666504,-0.7019150072480898
1499369131441,-0.09155413138023505,-3.2043945983061803,-0.7629510948347615
1499369131457,-0.33569848172737693,-2.8992141603723667,-0.6408789196611906
1499369131473,-0.6408789196611906,-2.4719615472647547,-0.5188067444876197
1499369131489,-0.8239871824216607,-1.8616006713969,-0.45777065690094787
1499369131505,-0.9460593575952316,-1.1902037079423735,-0.2746623941404778
1499369131521,-0.8850232700083325,-0.5798428320745188,-0.15259021896690683
1499369131537,-0.8850232700083325,-0.15259021896690683,-0.09155413138023505
1499369131553,-0.7019150072480898,0.15259021896690683,-0.15259021896690683
1499369131569,-0.5188067444876197,0.33569848172737693,-0.03051804379333589
1499369131585,-0.213626306553806,0.45777065690094787,0.03051804379333589
1499369131601,-0.213626306553806,0.5188067444876197,0.15259021896690683
1499369131617,-0.33569848172737693,0.3967345693140487,0.15259021896690683
1499369131633,-0.2746623941404778,0.3967345693140487,0.15259021896690683
1499369131649,-0.09155413138023505,0.2746623941404778,0.15259021896690683
1499369131665,0.15259021896690683,-0.09155413138023505,0.15259021896690683
1499369131681,0.33569848172737693,-0.45777065690094787,0.03051804379333589
1499369131697,0.3967345693140487,-0.8239871824216607,-0.09155413138023505
1499369131713,0.33569848172737693,-1.1291676203554744,-0.15259021896690683
1499369131729,0.213626306553806,-1.4953841458761872,-0.09155413138023505
1499369131745,0.213626306553806,-1.9226367589837992,-0.09155413138023505
1499369131761,0.09155413138023505,-2.227817196917613,-0.09155413138023505
1499369131777,0.15259021896690683,-2.655069810025225,-0.09155413138023505
1499369131793,0.2746623941404778,-3.0212863355459376,-0.09155413138023505
1499369131809,0.33569848172737693,-3.1433585107195086,-0.09155413138023505
1499369131825,0.2746623941404778,-3.0212863355459376,-0.03051804379333589
1499369131841,0.213626306553806,-2.7771419851987957,-0.09155413138023505
1499369131857,0.15259021896690683,-2.5940337224383256,-0.15259021896690683
1499369131873,0.213626306553806,-2.410925459678083,-0.213626306553806
1499369131889,0.09155413138023505,-2.166781109330941,-0.2746623941404778
1499369131905,0.03051804379333589,-1.983672846570471,-0.2746623941404778
1499369131921,-0.09155413138023505,-1.8616006713969,-0.2746623941404778
1499369131937,-0.15259021896690683,-1.739528496223329,-0.3967345693140487
1499369131953,-0.15259021896690683,-1.6784924086366573,-0.33569848172737693
1499369131969,-0.09155413138023505,-1.6174563210497581,-0.33569848172737693
1499369131985,-0.15259021896690683,-1.739528496223329,-0.33569848172737693
1499369132001,-0.09155413138023505,-1.983672846570471,-0.213626306553806
1499369132017,-0.03051804379333589,-2.288853284504512,-0.09155413138023505
1499369132032,0.03051804379333589,-2.410925459678083,0.03051804379333589
1499369132048,0.09155413138023505,-2.4719615472647547,0.09155413138023505
1499369132064,0.09155413138023505,-2.4719615472647547,0.15259021896690683
1499369132080,0.213626306553806,-2.410925459678083,0.15259021896690683
1499369132096,0.2746623941404778,-2.4719615472647547,0.09155413138023505
1499369132112,0.213626306553806,-2.532997634851654,0.09155413138023505
1499369132128,0.2746623941404778,-2.532997634851654,-0.03051804379333589
1499369132144,0.15259021896690683,-2.4719615472647547,-0.09155413138023505
1499369132160,-0.03051804379333589,-2.288853284504512,-0.09155413138023505
1499369132176,-0.15259021896690683,-2.227817196917613,-0.15259021896690683
1499369132192,-0.2746623941404778,-2.105745021744042,-0.33569848172737693
1499369132208,-0.3967345693140487,-1.9226367589837992,-0.5798428320745188
1499369132224,-0.3967345693140487,-1.8616006713969,-0.5798428320745188
1499369132240,-0.33569848172737693,-1.9226367589837992,-0.5798428320745188
1499369132256,-0.2746623941404778,-2.04470893415737,-0.5798428320745188
1499369132272,-0.15259021896690683,-2.166781109330941,-0.5798428320745188
1499369132288,0.09155413138023505,-2.3498893720911838,-0.3967345693140487
1499369132304,0.2746623941404778,-2.532997634851654,-0.2746623941404778
1499369132320,0.2746623941404778,-2.7771419851987957,-0.15259021896690683
1499369132336,0.15259021896690683,-3.1433585107195086,-0.03051804379333589
1499369132352,0.03051804379333589,-3.3875028610666504,-0.03051804379333589
1499369132368,0.09155413138023505,-3.5095750362402214,0.03051804379333589
1499369132384,0.15259021896690683,-3.5095750362402214,-0.03051804379333589
1499369132400,0.15259021896690683,-3.5095750362402214,-0.09155413138023505
1499369132416,0.09155413138023505,-3.3875028610666504,-0.213626306553806
1499369132432,-0.03051804379333589,-3.1433585107195086,-0.33569848172737693
1499369132448,-0.15259021896690683,-2.7771419851987957,-0.5188067444876197
1499369132464,-0.3967345693140487,-2.3498893720911838,-0.7019150072480898
1499369132480,-0.5188067444876197,-1.8616006713969,-0.7019150072480898
1499369132496,-0.6408789196611906,-1.3733119707026162,-0.6408789196611906
1499369132512,-0.7019150072480898,-1.0681315327688026,-0.6408789196611906
1499369132528,-0.7019150072480898,-0.8850232700083325,-0.5798428320745188
1499369132544,-0.6408789196611906,-0.9460593575952316,-0.45777065690094787
1499369132560,-0.6408789196611906,-1.1902037079423735,-0.45777065690094787
1499369132576,-0.5188067444876197,-1.3733119707026162,-0.33569848172737693
1499369132592,-0.33569848172737693,-1.6784924086366573,-0.2746623941404778
1499369132608,-0.213626306553806,-1.9226367589837992,-0.2746623941404778
1499369132624,-0.15259021896690683,-2.04470893415737,-0.2746623941404778
1499369132640,-0.15259021896690683,-2.166781109330941,-0.213626306553806
1499369132656,-0.15259021896690683,-2.166781109330941,-0.33569848172737693
1499369132672,-0.33569848172737693,-2.227817196917613,-0.45777065690094787
1499369132688,-0.3967345693140487,-2.166781109330941,-0.5798428320745188
1499369132704,-0.45777065690094787,-2.105745021744042,-0.5798428320745188
1499369132720,-0.5188067444876197,-2.105745021744042,-0.7019150072480898
1499369132736,-0.5798428320745188,-2.04470893415737,-0.7629510948347615
1499369132752,-0.45777065690094787,-2.105745021744042,-0.7629510948347615
1499369132768,-0.5188067444876197,-2.166781109330941,-0.6408789196611906
1499369132784,-0.5188067444876197,-2.105745021744042,-0.5798428320745188
1499369132800,-0.45777065690094787,-1.983672846570471,-0.45777065690094787
1499369132816,-0.45777065690094787,-2.04470893415737,-0.45777065690094787
1499369132832,-0.3967345693140487,-2.04470893415737,-0.45777065690094787
1499369132848,-0.33569848172737693,-2.04470893415737,-0.45777065690094787
1499369132864,-0.33569848172737693,-2.04470893415737,-0.45777065690094787
1499369132880,-0.33569848172737693,-2.04470893415737,-0.3967345693140487
1499369132896,-0.45777065690094787,-2.04470893415737,-0.3967345693140487
1499369132912,-0.5188067444876197,-1.9226367589837992,-0.33569848172737693
1499369132928,-0.5188067444876197,-1.8616006713969,-0.213626306553806
1499369132944,-0.5188067444876197,-1.8005645838102282,-0.15259021896690683
1499369132960,-0.45777065690094787,-1.6784924086366573,-0.213626306553806
1499369132976,-0.33569848172737693,-1.6784924086366573,-0.15259021896690683
1499369132992,-0.33569848172737693,-1.6784924086366573,-0.15259021896690683
1499369133008,-0.213626306553806,-1.8005645838102282,-0.15259021896690683
1499369133024,-0.15259021896690683,-1.983672846570471,-0.15259021896690683
1499369133040,-0.03051804379333589,-2.227817196917613,-0.15259021896690683
1499369133056,0.09155413138023505,-2.3498893720911838,-0.09155413138023505
1499369133072,0.09155413138023505,-2.410925459678083,-0.03051804379333589
1499369133088,0.03051804379333589,-2.4719615472647547,0.03051804379333589
1499369133104,0.03051804379333589,-2.4719615472647547,0.09155413138023505
1499369133120,-0.09155413138023505,-2.288853284504512,0.09155413138023505
1499369133136,-0.03051804379333589,-2.227817196917613,0.09155413138023505
1499369133152,0.03051804379333589,-2.166781109330941,0.03051804379333589
1499369133168,0.15259021896690683,-2.166781109330941,-0.03051804379333589
1499369133184,0.15259021896690683,-2.3498893720911838,-0.03051804379333589
1499369133200,0.213626306553806,-2.4719615472647547,-0.03051804379333589
1499369133216,0.2746623941404778,-2.5940337224383256,-0.09155413138023505
1499369133232,0.33569848172737693,-2.8992141603723667,-0.03051804379333589
1499369133248,0.33569848172737693,-3.2043945983061803,-0.09155413138023505
1499369133263,0.33569848172737693,-3.4485389486533222,-0.03051804379333589
1499369133279,0.33569848172737693,-3.692683299000464,-0.09155413138023505
1499369133295,0.45777065690094787,-3.875791561760934,-0.03051804379333589
1499369133311,0.45777065690094787,-3.936827649347606,0.09155413138023505
1499369133327,0.45777065690094787,-3.875791561760934,0.15259021896690683
1499369133343,0.33569848172737693,-3.814755474174035,0.09155413138023505
1499369133359,0.15259021896690683,-3.7537193865873633,0.03051804379333589
1499369133375,0.213626306553806,-3.7537193865873633,0.03051804379333589
1499369133391,0.2746623941404778,-3.570611123826893,0.09155413138023505
