Timestamp (ms),Accel X (g),Accel Y (g),Accel Z (g)
1499368314989,0.39166857404440414,-0.8695811398489357,-0.19623102159151617
1499368315021,0.3750667582207985,-0.8808117799649042,-0.20502021820401328
1499368315053,0.36774242771038335,-0.8773937590600442,-0.23578240634775316
1499368315085,0.3980163271534298,-0.8793469138628214,-0.22943465323872747
1499368315117,0.41852445258258975,-0.8915541313801785,-0.21136797131303897
1499368315149,0.3750667582207985,-0.87348744945449,-0.17084000915541298
1499368315181,0.3565117875944148,-0.8827649347676814,-0.20209048599984758
1499368315213,0.34088654917219774,-0.8944838635843442,-0.2255283436331732
1499368315245,0.33453879606317205,-0.9369649805447469,-0.1850003814755472
1499368315277,0.3360036621652549,-0.9047379262989241,-0.18988326848249049
1499368315309,0.3247730220492864,-0.9057145037003127,-0.1698634317540244
1499368315341,0.2993820096131836,-0.9247577630273898,-0.1488670176241702
1499368315373,0.34723430228122343,-0.9076676585030898,-0.19085984588387905
1499368315405,0.3394216830701149,-0.9301289387350269,-0.19671931029221046
1499368315437,0.3335622186617835,-0.9057145037003127,-0.17376974135957868
1499368315469,0.3428397039749749,-0.8988784618905927,-0.18304722667277007
1499368315501,0.33990997177080917,-0.8964370183871213,-0.17523460746166153
1499368315533,0.3364919508659492,-0.8974135957885099,-0.18109407186999293
1499368315565,0.35504692149233197,-0.8988784618905927,-0.18255893797207579
1499368315597,0.35602349889372054,-0.8910658426794842,-0.1698634317540244
1499368315629,0.34625772487983486,-0.9071793698023956,-0.15960936903944445
1499368315661,0.3623712520027462,-0.8988784618905927,-0.17132829785610726
1499368315693,0.3418631265735863,-0.913038834210727,-0.18060578316929865
1499368315725,0.3570000762951091,-0.8944838635843442,-0.17865262836652152
1499368315757,0.32574959945067494,-0.8876478217746242,-0.1610742351415273
1499368315789,0.3335622186617835,-0.8764171816586557,-0.1400778210116731
1499368315821,0.3750667582207985,-0.892530708781567,-0.19769588769359903
1499368315853,0.3809262226291299,-0.9281757839322498,-0.18793011367971335
1499368315885,0.37653162432288134,-0.9101091020065613,-0.1820706492713815
1499368315917,0.35553521019302625,-0.8979018844892042,-0.17767605096513295
1499368315949,0.3306324864576178,-0.9154802777141984,-0.16253910124361015
1499368315981,0.33160906385900635,-0.9052262149996184,-0.18255893797207579
1499368316013,0.3418631265735863,-0.906202792401007,-0.18841840238040763
1499368316045,0.3486991683833063,-0.9115739681086441,-0.15667963683527875
1499368316077,0.3452811474784463,-0.9003433279926756,-0.16351567864499872
1499368316109,0.35504692149233197,-0.9105973907072555,-0.1854886701762415
1499368316141,0.3296559090562292,-0.925246051728084,-0.16595712214847014
1499368316173,0.33160906385900635,-0.9071793698023956,-0.14056610971236738
1499368316205,0.3428397039749749,-0.9110856794079498,-0.16791027695124727
1499368316237,0.3384451056687263,-0.8920424200808728,-0.14154268711375595
1499368316260,0.3389333943694206,-0.8988784618905927,-0.15326161593041876
1499368316292,0.34625772487983486,-0.9066910811017013,-0.1762111848630501
1499368316324,0.3208667124437321,-0.932082093537804,-0.15570305943389018
1499368316356,0.351628900587472,-0.9159685664148927,-0.1576562142366673
1499368316388,0.32233157854581496,-0.8920424200808728,-0.14984359502555877
1499368316420,0.3423514152742806,-0.9120622568093384,-0.1644922560463873
1499368316452,0.3301441977569235,-0.9218280308232241,-0.127870603494316
1499368316484,0.341374837872892,-0.9076676585030898,-0.1459372854200045
1499368316516,0.3696955825131605,-0.9301289387350269,-0.18060578316929865
1499368316548,0.36432440680552336,-0.9169451438162812,-0.16058594644083302
1499368316580,0.37360189211871475,-0.902784771496147,-0.18402380407415864
1499368316612,0.36774242771038335,-0.906202792401007,-0.18988326848249049
1499368316644,0.3662775616083005,-0.8896009765774013,-0.15716792553597303
1499368316676,0.37604333562218706,-0.9120622568093384,-0.17084000915541298
1499368316708,0.425848783093004,-0.8896009765774013,-0.21185626001373326
1499368316740,0.3653009842069119,-0.8515144579232472,-0.12591744869153887
1499368316772,0.389715419241627,-0.9066910811017013,-0.13226520180056456
1499368316804,0.3775082017242699,-0.8285648889906159,-0.13568322270542454
1499368316836,0.43366140230411254,-0.889112687876707,-0.20599679560540185
1499368316868,0.40582894636453837,-0.8593270771343557,-0.17474631876096725
1499368316900,0.38776226443884987,-0.9135271229114212,-0.17718776226443866
1499368316931,0.4077821011673155,-0.8539559014267186,-0.2108796826123447
1499368316963,0.4112001220721755,-0.8969253070878156,-0.2016021972991533
1499368316995,0.3604180971999691,-0.9013199053940641,-0.15130846112764162
1499368317027,0.38873884184023844,-0.8798352025635157,-0.15667963683527875
1499368317059,0.40875867856870407,-0.8813000686655985,-0.18793011367971335
1499368317091,0.38287937743190703,-0.8773937590600442,-0.16595712214847014
1499368317123,0.4043640802624555,-0.8915541313801785,-0.1850003814755472
1499368317155,0.4165712977798126,-0.8603036545357443,-0.22211032272831321
1499368317187,0.3902037079423213,-0.8915541313801785,-0.19671931029221046
1499368317219,0.3775082017242699,-0.8876478217746242,-0.1957427328908219
1499368317251,0.37653162432288134,-0.9066910811017013,-0.18158236057068722
1499368317283,0.3784847791256585,-0.8759288929579614,-0.15033188372625306
1499368317315,0.3872739757381556,-0.8778820477607385,-0.17474631876096725
1499368317347,0.37018387121385476,-0.8974135957885099,-0.16595712214847014
1499368317379,0.3960631723506527,-0.8935072861829556,-0.18011749446860437
1499368317411,0.37360189211871475,-0.9052262149996184,-0.1757228961623558
1499368317443,0.3867856870374613,-0.899366750591287,-0.17962920576791008
1499368317475,0.3687190051117719,-0.87348744945449,-0.18255893797207579
1499368317507,0.38825055313954415,-0.8783703364614328,-0.19134813458457334
1499368317530,0.38532082093537845,-0.8842298008697642,-0.18060578316929865
1499368317562,0.37897306782635276,-0.8773937590600442,-0.17718776226443866
1499368317594,0.3955748836499584,-0.8822766460669871,-0.21576256961928753
1499368317626,0.3594415197985805,-0.8935072861829556,-0.17181658655680154
1499368317658,0.37897306782635276,-0.8881361104753185,-0.1854886701762415
1499368317690,0.3623712520027462,-0.8886243991760128,-0.18695353627832434
1499368317722,0.37604333562218706,-0.9066910811017013,-0.17084000915541298
1499368317754,0.38532082093537845,-0.8715342946517128,-0.1820706492713815
1499368317786,0.3452811474784463,-0.9057145037003127,-0.19134813458457334
1499368317818,0.34674601358052914,-0.8983901731898984,-0.17181658655680154
1499368317850,0.3950865949492641,-0.8593270771343557,-0.20550850690470757
1499368317882,0.3609063859006634,-0.9311055161364155,-0.19769588769359903
1499368317914,0.37946135652704704,-0.9101091020065613,-0.19476615548943332
1499368317946,0.3716487373159376,-0.8813000686655985,-0.1957427328908219
1499368317978,0.348210879682612,-0.9091325246051727,-0.17767605096513295
1499368318010,0.3565117875944148,-0.8749523155565728,-0.17181658655680154
1499368318042,0.35895323109788624,-0.889112687876707,-0.1923247119859619
1499368318073,0.37946135652704704,-0.8988784618905927,-0.20062561989776473
1499368318105,0.3892271305409327,-0.8842298008697642,-0.18841840238040763
1499368318137,0.35846494239719195,-0.8856946669718471,-0.18011749446860437
1499368318169,0.37653162432288134,-0.8856946669718471,-0.1923247119859619
1499368318201,0.36139467460135766,-0.8974135957885099,-0.18597695887693577
1499368318233,0.38580910963607273,-0.899366750591287,-0.19134813458457334
1499368318265,0.37604333562218706,-0.8871595330739299,-0.1820706492713815
1499368318297,0.38532082093537845,-0.8871595330739299,-0.1928130006866562
1499368318329,0.3838559548332956,-0.8808117799649042,-0.19037155718318477
1499368318361,0.3726253147173262,-0.8915541313801785,-0.1952544441901276
1499368318393,0.3770199130235756,-0.895948729686427,-0.1854886701762415
1499368318425,0.37311360341802047,-0.8847180895704585,-0.19330128938735047
1499368318457,0.3755550469214928,-0.8852063782711528,-0.19085984588387905
1499368318489,0.38239108873121275,-0.902784771496147,-0.1928130006866562
1499368318521,0.3833676661326013,-0.8949721522850385,-0.1986724650949876
1499368318553,0.3833676661326013,-0.8861829556725414,-0.20062561989776473
1499368318585,0.3750667582207985,-0.9008316166933699,-0.18646524757763006
1499368318617,0.38190280003051846,-0.87348744945449,-0.19476615548943332
1499368318649,0.3872739757381556,-0.8979018844892042,-0.18304722667277007
1499368318681,0.38287937743190703,-0.8954604409857327,-0.17474631876096725
1499368318713,0.37116044861524333,-0.8808117799649042,-0.21185626001373326
1499368318745,0.3833676661326013,-0.8974135957885099,-0.19134813458457334
1499368318776,0.37116044861524333,-0.8886243991760128,-0.17816433966582723
1499368318801,0.3892271305409327,-0.88032349126421,-0.1981841763942933
1499368318833,0.36823071641107763,-0.8871595330739299,-0.1820706492713815
1499368318864,0.37604333562218706,-0.8808117799649042,-0.19037155718318477
1499368318896,0.3814145113298242,-0.8876478217746242,-0.20013733119707044
1499368318928,0.38190280003051846,-0.8861829556725414,-0.18597695887693577
1499368318960,0.37897306782635276,-0.8876478217746242,-0.20794995040817899
1499368318992,0.3755550469214928,-0.8832532234683756,-0.1981841763942933
1499368319024,0.3955748836499584,-0.8793469138628214,-0.19378957808804476
1499368319056,0.37946135652704704,-0.8759288929579614,-0.20697337300679042
1499368319088,0.4019226367589841,-0.8944838635843442,-0.22211032272831321
1499368319120,0.3843442435339899,-0.87348744945449,-0.17767605096513295
1499368319152,0.3779964904249642,-0.8808117799649042,-0.19476615548943332
1499368319184,0.3936217288471813,-0.8705577172503243,-0.21820401312275894
1499368319216,0.3867856870374613,-0.8793469138628214,-0.20697337300679042
1499368319248,0.40387579156176123,-0.8817883573662928,-0.21283283741512182
1499368319280,0.40680552376592694,-0.8778820477607385,-0.19134813458457334
1499368319312,0.39703974975204126,-0.8813000686655985,-0.20306706340123615
1499368319344,0.40631723506523265,-0.87006942854963,-0.21722743572137038
1499368319376,0.40045777065690125,-0.8681162737468529,-0.19330128938735047
1499368319407,0.40338750286106695,-0.8764171816586557,-0.22162203402761893
1499368319439,0.4082703898680098,-0.8705577172503243,-0.2103913939116504
1499368319471,0.40045777065690125,-0.87006942854963,-0.18646524757763006
1499368319503,0.3950865949492641,-0.8671396963454643,-0.20355535210193043
1499368319535,0.4116884107728698,-0.8739757381551843,-0.21185626001373326
1499368319567,0.40289921416037267,-0.8690928511482414,-0.1986724650949876
1499368319599,0.39996948195620696,-0.8759288929579614,-0.19330128938735047
1499368319631,0.4077821011673155,-0.8725108720531014,-0.20502021820401328
1499368319663,0.40973525597009264,-0.8842298008697642,-0.1957427328908219
1499368319695,0.4014343480582898,-0.8783703364614328,-0.20209048599984758
1499368319727,0.4043640802624555,-0.8578622110322729,-0.21136797131303897
1499368319759,0.40387579156176123,-0.8710460059510186,-0.1952544441901276
1499368319791,0.4204776073853669,-0.87006942854963,-0.19183642328526762
1499368319823,0.42194247348744973,-0.86665140764477,-0.20355535210193043
1499368319855,0.40387579156176123,-0.8676279850461586,-0.1850003814755472
1499368319887,0.40094605935759553,-0.8642099641412986,-0.17962920576791008
1499368319918,0.42194247348744973,-0.87690547035935,-0.20257877470054186
1499368319950,0.4048523689631498,-0.8705577172503243,-0.18304722667277007
1499368319982,0.3989929045548184,-0.8900892652780956,-0.2074616617074847
1499368320014,0.4019226367589841,-0.8813000686655985,-0.20257877470054186
1499368320046,0.4014343480582898,-0.8847180895704585,-0.19720759899290474
1499368320071,0.39118028534370985,-0.8676279850461586,-0.20062561989776473
1499368320103,0.3989929045548184,-0.8764171816586557,-0.20892652780956755
1499368320135,0.4102235446707869,-0.8759288929579614,-0.19037155718318477
1499368320167,0.40631723506523265,-0.8847180895704585,-0.16839856565194156
1499368320199,0.3985046158541241,-0.8744640268558785,-0.1820706492713815
1499368320230,0.4014343480582898,-0.8710460059510186,-0.1757228961623558
1499368320262,0.3980163271534298,-0.895948729686427,-0.18841840238040763
1499368320294,0.4072938124666212,-0.8788586251621271,-0.18841840238040763
1499368320326,0.39703974975204126,-0.8832532234683756,-0.18353551537346435
1499368320358,0.396551461051347,-0.8759288929579614,-0.18597695887693577
1499368320390,0.4131532768749526,-0.8764171816586557,-0.18988326848249049
1499368320422,0.40875867856870407,-0.8778820477607385,-0.1957427328908219
1499368320454,0.40631723506523265,-0.87006942854963,-0.19183642328526762
1499368320486,0.39752803845273554,-0.8725108720531014,-0.2016021972991533
1499368320518,0.39411001754787556,-0.8808117799649042,-0.19769588769359903
1499368320550,0.40338750286106695,-0.8690928511482414,-0.18890669108110192
1499368320582,0.3989929045548184,-0.8676279850461586,-0.18353551537346435
1499368320614,0.3936217288471813,-0.8861829556725414,-0.19769588769359903
1499368320646,0.40045777065690125,-0.8827649347676814,-0.19720759899290474
1499368320677,0.3921568627450984,-0.8720225833524071,-0.2074616617074847
1499368320709,0.393133440146487,-0.8808117799649042,-0.18695353627832434
1499368320741,0.4048523689631498,-0.8710460059510186,-0.21283283741512182
1499368320773,0.393133440146487,-0.8783703364614328,-0.19671931029221046
1499368320805,0.38776226443884987,-0.8944838635843442,-0.20257877470054186
1499368320837,0.3872739757381556,-0.8808117799649042,-0.18890669108110192
1499368320869,0.4014343480582898,-0.8817883573662928,-0.21722743572137038
1499368320901,0.40924696726939835,-0.8817883573662928,-0.19476615548943332
1499368320933,0.39752803845273554,-0.8690928511482414,-0.20062561989776473
1499368320965,0.3955748836499584,-0.8764171816586557,-0.18109407186999293
1499368320997,0.4019226367589841,-0.8695811398489357,-0.19085984588387905
1499368321029,0.40973525597009264,-0.8871595330739299,-0.21283283741512182
1499368321061,0.3936217288471813,-0.8808117799649042,-0.18304722667277007
1499368321093,0.4165712977798126,-0.8686045624475471,-0.18744182497901862
1499368321124,0.40924696726939835,-0.8715342946517128,-0.17962920576791008
1499368321156,0.40094605935759553,-0.8871595330739299,-0.1986724650949876
1499368321188,0.40338750286106695,-0.8583504997329672,-0.18597695887693577
1499368321220,0.396551461051347,-0.8710460059510186,-0.2108796826123447
1499368321252,0.4024109254596784,-0.8798352025635157,-0.2016021972991533
1499368321284,0.4048523689631498,-0.8583504997329672,-0.20257877470054186
1499368321316,0.40094605935759553,-0.8822766460669871,-0.18646524757763006
1499368321341,0.4014343480582898,-0.8676279850461586,-0.1981841763942933
1499368321373,0.40582894636453837,-0.8759288929579614,-0.21185626001373326
1499368321405,0.4131532768749526,-0.8725108720531014,-0.20013733119707044
1499368321437,0.4131532768749526,-0.8676279850461586,-0.18890669108110192
1499368321469,0.3980163271534298,-0.8603036545357443,-0.22211032272831321
1499368321501,0.40924696726939835,-0.8832532234683756,-0.21576256961928753
1499368321533,0.39703974975204126,-0.8866712443732356,-0.2133211261158161
1499368321565,0.40680552376592694,-0.8798352025635157,-0.23871213855191886
1499368321597,0.3994811932555127,-0.8749523155565728,-0.16009765774013873
1499368321629,0.41510643167772976,-0.8578622110322729,-0.1981841763942933
1499368321661,0.3867856870374613,-0.8759288929579614,-0.20794995040817899
1499368321692,0.39069199664301557,-0.8881361104753185,-0.16205081254291587
1499368321724,0.39118028534370985,-0.8813000686655985,-0.21136797131303897
1499368321756,0.3936217288471813,-0.8954604409857327,-0.16009765774013873
1499368321788,0.3843442435339899,-0.8822766460669871,-0.18353551537346435
1499368321820,0.389715419241627,-0.8759288929579614,-0.19085984588387905
1499368321852,0.37897306782635276,-0.8856946669718471,-0.17376974135957868
1499368321884,0.3750667582207985,-0.87690547035935,-0.19134813458457334
1499368321916,0.37897306782635276,-0.8939955748836499,-0.18744182497901862
1499368321948,0.3755550469214928,-0.8837415121690699,-0.19916075379568188
1499368321980,0.3726253147173262,-0.8910658426794842,-0.1757228961623558
1499368322012,0.36725413900968906,-0.899366750591287,-0.17230487525749583
1499368322044,0.3574883649958034,-0.8920424200808728,-0.16791027695124727
1499368322075,0.3599298084992748,-0.906202792401007,-0.18597695887693577
1499368322107,0.32526131074998066,-0.9022964827954527,-0.16009765774013873
1499368322139,0.35553521019302625,-0.889112687876707,-0.1552147707331959
1499368322171,0.33502708476386633,-0.9159685664148927,-0.19330128938735047
1499368322203,0.35602349889372054,-0.9379415579461359,-0.19037155718318477
1499368322235,0.3213550011444264,-0.9193865873197526,-0.17084000915541298
1499368322267,0.31696040283817783,-0.906202792401007,-0.16205081254291587
1499368322299,0.3233081559472035,-0.9018081940947584,-0.15667963683527875
1499368322331,0.3594415197985805,-0.8969253070878156,-0.21234454871442754
1499368322363,0.3628595407034405,-0.8969253070878156,-0.23041123064011604
1499368322395,0.38287937743190703,-0.8920424200808728,-0.23089951934081032
1499368322427,0.3867856870374613,-0.8725108720531014,-0.23529411764705888
1499368322458,0.36481269550621764,-0.8808117799649042,-0.2255283436331732
1499368322490,0.37604333562218706,-0.8832532234683756,-0.2313878080415046
1499368322522,0.3745784695201033,-0.8974135957885099,-0.2284580758373389
1499368322554,0.3638361181048291,-0.8910658426794842,-0.21185626001373326
1499368322586,0.37994964522774133,-0.8739757381551843,-0.18060578316929865
1499368322611,0.3892271305409327,-0.8837415121690699,-0.2225986114290075
1499368322643,0.38483253223468417,-0.8871595330739299,-0.21527428091859324
1499368322675,0.37653162432288134,-0.8725108720531014,-0.20599679560540185
1499368322707,0.3843442435339899,-0.8725108720531014,-0.2074616617074847
1499368322739,0.37994964522774133,-0.8832532234683756,-0.19085984588387905
1499368322771,0.389715419241627,-0.8856946669718471,-0.19916075379568188
1499368322803,0.3775082017242699,-0.8793469138628214,-0.17767605096513295
1499368322835,0.3687190051117719,-0.8949721522850385,-0.1928130006866562
1499368322867,0.3662775616083005,-0.8817883573662928,-0.18353551537346435
1499368322899,0.3726253147173262,-0.899366750591287,-0.18646524757763006
1499368322930,0.36432440680552336,-0.8876478217746242,-0.1850003814755472
1499368322962,0.3657892729076062,-0.9037613488975356,-0.17474631876096725
1499368322994,0.36188296330205194,-0.8979018844892042,-0.16546883344777585
1499368323026,0.36481269550621764,-0.8896009765774013,-0.17816433966582723
1499368323058,0.3657892729076062,-0.9076676585030898,-0.20062561989776473
1499368323090,0.3638361181048291,-0.9018081940947584,-0.1727931639581901
1499368323122,0.36139467460135766,-0.8900892652780956,-0.16888685435263584
1499368323154,0.35797665369649767,-0.8871595330739299,-0.18695353627832434
1499368323186,0.36774242771038335,-0.8920424200808728,-0.19037155718318477
1499368323218,0.3638361181048291,-0.9032730601968413,-0.1854886701762415
1499368323250,0.3770199130235756,-0.8974135957885099,-0.20062561989776473
1499368323281,0.3696955825131605,-0.8910658426794842,-0.1986724650949876
1499368323313,0.37653162432288134,-0.8852063782711528,-0.17767605096513295
1499368323345,0.37994964522774133,-0.8813000686655985,-0.20306706340123615
1499368323377,0.37897306782635276,-0.906202792401007,-0.19916075379568188
1499368323409,0.3687190051117719,-0.8920424200808728,-0.19378957808804476
1499368323441,0.3692072938124662,-0.8866712443732356,-0.1923247119859619
1499368323473,0.3721370260166319,-0.8920424200808728,-0.21136797131303897
1499368323505,0.37604333562218706,-0.8817883573662928,-0.19037155718318477
1499368323537,0.3657892729076062,-0.8847180895704585,-0.18304722667277007
1499368323569,0.3770199130235756,-0.8778820477607385,-0.19134813458457334
1499368323600,0.3716487373159376,-0.8856946669718471,-0.18695353627832434
1499368323632,0.38190280003051846,-0.8896009765774013,-0.19623102159151617
1499368323664,0.37116044861524333,-0.8979018844892042,-0.19476615548943332
1499368323696,0.37360189211871475,-0.8920424200808728,-0.20648508430609613
1499368323728,0.37604333562218706,-0.8871595330739299,-0.20404364080262472
1499368323760,0.3775082017242699,-0.8920424200808728,-0.20599679560540185
1499368323792,0.37360189211871475,-0.8983901731898984,-0.18793011367971335
1499368323824,0.36481269550621764,-0.87690547035935,-0.19476615548943332
1499368323856,0.3750667582207985,-0.8886243991760128,-0.18744182497901862
1499368323881,0.36823071641107763,-0.8915541313801785,-0.18890669108110192
1499368323913,0.37946135652704704,-0.8773937590600442,-0.19769588769359903
1499368323945,0.36725413900968906,-0.8998550392919813,-0.201113908598459
1499368323977,0.37604333562218706,-0.8969253070878156,-0.18695353627832434
1499368324009,0.36481269550621764,-0.8808117799649042,-0.19720759899290474
1499368324041,0.37360189211871475,-0.8900892652780956,-0.20843823910887327
1499368324073,0.3696955825131605,-0.8783703364614328,-0.20257877470054186
1499368324105,0.37360189211871475,-0.8832532234683756,-0.19671931029221046
1499368324137,0.37994964522774133,-0.902784771496147,-0.19037155718318477
1499368324169,0.37604333562218706,-0.889112687876707,-0.17669947356374438
1499368324200,0.3657892729076062,-0.8871595330739299,-0.19671931029221046
1499368324232,0.3638361181048291,-0.8852063782711528,-0.20062561989776473
1499368324264,0.3779964904249642,-0.8900892652780956,-0.18988326848249049
1499368324296,0.37946135652704704,-0.8861829556725414,-0.20013733119707044
1499368324328,0.37994964522774133,-0.8861829556725414,-0.20843823910887327
1499368324360,0.37018387121385476,-0.8793469138628214,-0.1854886701762415
1499368324392,0.3657892729076062,-0.8778820477607385,-0.21185626001373326
1499368324424,0.37897306782635276,-0.8886243991760128,-0.19037155718318477
1499368324456,0.37067215991454905,-0.8954604409857327,-0.19720759899290474
1499368324487,0.37897306782635276,-0.8905775539787899,-0.19476615548943332
1499368324519,0.36823071641107763,-0.8832532234683756,-0.19330128938735047
1499368324551,0.3633478294041348,-0.8852063782711528,-0.17767605096513295
1499368324583,0.37604333562218706,-0.8827649347676814,-0.1854886701762415
1499368324615,0.36432440680552336,-0.8896009765774013,-0.18841840238040763
1499368324647,0.37409018081940903,-0.8866712443732356,-0.1762111848630501
1499368324679,0.3638361181048291,-0.8744640268558785,-0.18646524757763006
1499368324711,0.37604333562218706,-0.8979018844892042,-0.20990310521095612
1499368324743,0.3809262226291299,-0.8935072861829556,-0.17669947356374438
1499368324774,0.37409018081940903,-0.8852063782711528,-0.19623102159151617
1499368324806,0.3604180971999691,-0.88032349126421,-0.19134813458457334
1499368324838,0.36823071641107763,-0.8935072861829556,-0.20306706340123615
1499368324870,0.3662775616083005,-0.8808117799649042,-0.19916075379568188
1499368324902,0.3657892729076062,-0.8920424200808728,-0.18255893797207579
1499368324934,0.3750667582207985,-0.8915541313801785,-0.21136797131303897
1499368324966,0.37946135652704704,-0.895948729686427,-0.20843823910887327
1499368324998,0.3750667582207985,-0.8847180895704585,-0.20355535210193043
1499368325030,0.3755550469214928,-0.892530708781567,-0.19183642328526762
1499368325062,0.37360189211871475,-0.87690547035935,-0.19183642328526762
1499368325093,0.37067215991454905,-0.8837415121690699,-0.2103913939116504
1499368325125,0.3657892729076062,-0.8832532234683756,-0.18646524757763006
1499368325152,0.37311360341802047,-0.8935072861829556,-0.20062561989776473
1499368325184,0.3721370260166319,-0.8998550392919813,-0.20062561989776473
1499368325215,0.37897306782635276,-0.8896009765774013,-0.20306706340123615
1499368325247,0.3604180971999691,-0.8871595330739299,-0.18988326848249049
1499368325279,0.3779964904249642,-0.8949721522850385,-0.20599679560540185
1499368325311,0.3716487373159376,-0.8954604409857327,-0.19183642328526762
1499368325343,0.3892271305409327,-0.8778820477607385,-0.18402380407415864
1499368325375,0.3696955825131605,-0.8866712443732356,-0.17767605096513295
1499368325407,0.37311360341802047,-0.8817883573662928,-0.19330128938735047
1499368325439,0.3770199130235756,-0.8900892652780956,-0.18841840238040763
1499368325470,0.3657892729076062,-0.9052262149996184,-0.20648508430609613
1499368325502,0.3809262226291299,-0.9032730601968413,-0.21527428091859324
1499368325534,0.38190280003051846,-0.889112687876707,-0.19476615548943332
1499368325566,0.36774242771038335,-0.8866712443732356,-0.20209048599984758
1499368325598,0.37116044861524333,-0.8856946669718471,-0.1854886701762415
1499368325630,0.37946135652704704,-0.8969253070878156,-0.1957427328908219
1499368325662,0.3687190051117719,-0.8915541313801785,-0.18353551537346435
1499368325694,0.36432440680552336,-0.8886243991760128,-0.18988326848249049
1499368325726,0.3696955825131605,-0.8900892652780956,-0.17767605096513295
1499368325757,0.37604333562218706,-0.8930189974822613,-0.20502021820401328
1499368325789,0.3755550469214928,-0.892530708781567,-0.17962920576791008
1499368325821,0.3716487373159376,-0.8998550392919813,-0.1952544441901276
1499368325853,0.35895323109788624,-0.8827649347676814,-0.19037155718318477
1499368325885,0.3750667582207985,-0.9057145037003127,-0.18988326848249049
1499368325917,0.36823071641107763,-0.9037613488975356,-0.1732814526588844
1499368325949,0.37604333562218706,-0.8954604409857327,-0.17865262836652152
1499368325981,0.3628595407034405,-0.8974135957885099,-0.1854886701762415
1499368326013,0.3726253147173262,-0.8979018844892042,-0.19085984588387905
1499368326044,0.3623712520027462,-0.8847180895704585,-0.18353551537346435
1499368326076,0.3667658503089948,-0.889112687876707,-0.17962920576791008
1499368326108,0.3692072938124662,-0.8905775539787899,-0.18695353627832434
1499368326140,0.3750667582207985,-0.8935072861829556,-0.1923247119859619
1499368326172,0.37897306782635276,-0.8871595330739299,-0.1854886701762415
1499368326204,0.3745784695201033,-0.8949721522850385,-0.18793011367971335
1499368326236,0.3604180971999691,-0.889112687876707,-0.17084000915541298
1499368326268,0.38483253223468417,-0.8988784618905927,-0.18841840238040763
1499368326299,0.36774242771038335,-0.895948729686427,-0.17523460746166153
1499368326331,0.3775082017242699,-0.8910658426794842,-0.18890669108110192
1499368326363,0.36432440680552336,-0.8964370183871213,-0.18011749446860437
1499368326395,0.3726253147173262,-0.8920424200808728,-0.17865262836652152
1499368326422,0.3623712520027462,-0.8969253070878156,-0.1762111848630501
1499368326454,0.3726253147173262,-0.8939955748836499,-0.18890669108110192
1499368326486,0.3604180971999691,-0.8930189974822613,-0.18402380407415864
1499368326517,0.36774242771038335,-0.8900892652780956,-0.1727931639581901
1499368326549,0.37604333562218706,-0.8920424200808728,-0.17084000915541298
1499368326581,0.3721370260166319,-0.8876478217746242,-0.18695353627832434
1499368326613,0.3623712520027462,-0.8954604409857327,-0.18402380407415864
1499368326645,0.36188296330205194,-0.8935072861829556,-0.18793011367971335
1499368326677,0.3599298084992748,-0.892530708781567,-0.18988326848249049
1499368326709,0.3633478294041348,-0.8983901731898984,-0.18988326848249049
1499368326741,0.3657892729076062,-0.899366750591287,-0.1762111848630501
1499368326772,0.3692072938124662,-0.8886243991760128,-0.1981841763942933
1499368326804,0.37116044861524333,-0.8935072861829556,-0.18646524757763006
1499368326836,0.36725413900968906,-0.8998550392919813,-0.19183642328526762
1499368326868,0.37897306782635276,-0.8905775539787899,-0.1854886701762415
1499368326900,0.3545586327916377,-0.8930189974822613,-0.167421988250553
1499368326932,0.3692072938124662,-0.8915541313801785,-0.19769588769359903
1499368326964,0.3633478294041348,-0.8915541313801785,-0.18255893797207579
1499368326996,0.3726253147173262,-0.9076676585030898,-0.18597695887693577
1499368327027,0.3657892729076062,-0.8881361104753185,-0.19134813458457334
1499368327059,0.3814145113298242,-0.8930189974822613,-0.18793011367971335
1499368327091,0.3692072938124662,-0.899366750591287,-0.19623102159151617
1499368327123,0.36188296330205194,-0.8900892652780956,-0.18695353627832434
1499368327155,0.36481269550621764,-0.8886243991760128,-0.18841840238040763
1499368327187,0.3638361181048291,-0.8920424200808728,-0.1923247119859619
1499368327219,0.37311360341802047,-0.8827649347676814,-0.17523460746166153
1499368327251,0.36823071641107763,-0.8910658426794842,-0.18793011367971335
1499368327282,0.37946135652704704,-0.8900892652780956,-0.21820401312275894
1499368327314,0.37653162432288134,-0.8905775539787899,-0.20550850690470757
1499368327346,0.37897306782635276,-0.8969253070878156,-0.20843823910887327
1499368327378,0.3716487373159376,-0.8778820477607385,-0.18402380407415864
1499368327410,0.3804379339284356,-0.8798352025635157,-0.1986724650949876
1499368327442,0.3662775616083005,-0.9037613488975356,-0.18890669108110192
1499368327474,0.37604333562218706,-0.8876478217746242,-0.19037155718318477
1499368327506,0.3814145113298242,-0.87690547035935,-0.19134813458457334
1499368327537,0.3804379339284356,-0.8842298008697642,-0.18158236057068722
1499368327569,0.37604333562218706,-0.8900892652780956,-0.20209048599984758
1499368327601,0.3716487373159376,-0.9037613488975356,-0.1732814526588844
1499368327633,0.3755550469214928,-0.88032349126421,-0.18402380407415864
1499368327665,0.3633478294041348,-0.8871595330739299,-0.18109407186999293
1499368327692,0.3696955825131605,-0.8974135957885099,-0.20013733119707044
1499368327724,0.3775082017242699,-0.8896009765774013,-0.2138094148165104
1499368327756,0.3867856870374613,-0.8964370183871213,-0.19769588769359903
1499368327788,0.38532082093537845,-0.87348744945449,-0.20355535210193043
1499368327820,0.35846494239719195,-0.88032349126421,-0.1986724650949876
1499368327851,0.3804379339284356,-0.8822766460669871,-0.21185626001373326
1499368327883,0.3784847791256585,-0.8720225833524071,-0.1986724650949876
1499368327915,0.37994964522774133,-0.8842298008697642,-0.22064545662623036
1499368327947,0.38287937743190703,-0.86665140764477,-0.19720759899290474
1499368327979,0.36774242771038335,-0.8813000686655985,-0.20404364080262472
1499368328011,0.3809262226291299,-0.8842298008697642,-0.2108796826123447
1499368328043,0.36432440680552336,-0.9101091020065613,-0.18304722667277007
1499368328074,0.37897306782635276,-0.8964370183871213,-0.18353551537346435
1499368328106,0.3667658503089948,-0.8778820477607385,-0.22015716792553608
1499368328138,0.37604333562218706,-0.8681162737468529,-0.22406347753109035
1499368328170,0.37897306782635276,-0.8656748302433814,-0.22357518883039607
1499368328202,0.39752803845273554,-0.8744640268558785,-0.2318760967421989
1499368328234,0.39459830624856984,-0.8939955748836499,-0.21429770351720467
1499368328266,0.38483253223468417,-0.8861829556725414,-0.20599679560540185
1499368328298,0.3638361181048291,-0.902784771496147,-0.21576256961928753
1499368328329,0.3535820553902491,-0.889112687876707,-0.22308690012970178
1499368328361,0.35797665369649767,-0.8832532234683756,-0.18890669108110192
1499368328393,0.3667658503089948,-0.889112687876707,-0.18695353627832434
1499368328425,0.3775082017242699,-0.8876478217746242,-0.19037155718318477
1499368328457,0.3721370260166319,-0.8856946669718471,-0.20209048599984758
1499368328489,0.3667658503089948,-0.8915541313801785,-0.18402380407415864
1499368328521,0.37116044861524333,-0.8930189974822613,-0.19183642328526762
1499368328552,0.37409018081940903,-0.8852063782711528,-0.20550850690470757
1499368328584,0.3696955825131605,-0.9003433279926756,-0.19476615548943332
1499368328616,0.37604333562218706,-0.8930189974822613,-0.1986724650949876
1499368328648,0.36823071641107763,-0.8910658426794842,-0.2108796826123447
1499368328680,0.3628595407034405,-0.8939955748836499,-0.2103913939116504
1499368328712,0.37604333562218706,-0.8822766460669871,-0.20502021820401328
1499368328744,0.3726253147173262,-0.8949721522850385,-0.21283283741512182
1499368328776,0.37360189211871475,-0.8822766460669871,-0.201113908598459
1499368328807,0.3653009842069119,-0.8881361104753185,-0.21234454871442754
1499368328839,0.37067215991454905,-0.8827649347676814,-0.20062561989776473
1499368328871,0.3750667582207985,-0.8896009765774013,-0.2103913939116504
1499368328903,0.3745784695201033,-0.8822766460669871,-0.19183642328526762
1499368328935,0.3750667582207985,-0.8817883573662928,-0.18890669108110192
1499368328962,0.3770199130235756,-0.8949721522850385,-0.18841840238040763
1499368328994,0.3872739757381556,-0.892530708781567,-0.20990310521095612
1499368329026,0.3692072938124662,-0.8905775539787899,-0.20599679560540185
1499368329058,0.3594415197985805,-0.8900892652780956,-0.20648508430609613
1499368329090,0.37604333562218706,-0.895948729686427,-0.18793011367971335
1499368329121,0.3784847791256585,-0.8856946669718471,-0.1952544441901276
1499368329153,0.37604333562218706,-0.8847180895704585,-0.20892652780956755
1499368329185,0.3716487373159376,-0.8910658426794842,-0.18988326848249049
1499368329217,0.3775082017242699,-0.8900892652780956,-0.20502021820401328
1499368329249,0.3770199130235756,-0.8896009765774013,-0.201113908598459
1499368329281,0.37409018081940903,-0.8871595330739299,-0.20404364080262472
1499368329313,0.3687190051117719,-0.892530708781567,-0.20209048599984758
1499368329344,0.3745784695201033,-0.8827649347676814,-0.1923247119859619
1499368329376,0.3809262226291299,-0.8881361104753185,-0.20257877470054186
1499368329408,0.3804379339284356,-0.8778820477607385,-0.1981841763942933
1499368329440,0.3628595407034405,-0.8881361104753185,-0.1952544441901276
1499368329472,0.34674601358052914,-0.8773937590600442,-0.1981841763942933
1499368329504,0.35016403448538913,-0.9081559472037841,-0.20697337300679042
1499368329536,0.37946135652704704,-0.9008316166933699,-0.1981841763942933
1499368329567,0.393133440146487,-0.8969253070878156,-0.18841840238040763
1499368329599,0.3696955825131605,-0.8896009765774013,-0.18646524757763006
1499368329631,0.3653009842069119,-0.8954604409857327,-0.1957427328908219
1499368329663,0.37360189211871475,-0.88032349126421,-0.18841840238040763
1499368329695,0.3692072938124662,-0.8915541313801785,-0.1820706492713815
1499368329727,0.3511406118867777,-0.9022964827954527,-0.20013733119707044
1499368329759,0.3535820553902491,-0.8866712443732356,-0.19183642328526762
1499368329790,0.3653009842069119,-0.8910658426794842,-0.19085984588387905
1499368329822,0.3687190051117719,-0.9018081940947584,-0.18060578316929865
1499368329854,0.35846494239719195,-0.8896009765774013,-0.18304722667277007
1499368329886,0.3755550469214928,-0.8915541313801785,-0.18255893797207579
1499368329918,0.37897306782635276,-0.8969253070878156,-0.18158236057068722
1499368329950,0.3570000762951091,-0.889112687876707,-0.1928130006866562
1499368329982,0.3653009842069119,-0.9071793698023956,-0.19769588769359903
1499368330013,0.3633478294041348,-0.8974135957885099,-0.18695353627832434
1499368330045,0.3726253147173262,-0.8988784618905927,-0.18890669108110192
1499368330077,0.3633478294041348,-0.8935072861829556,-0.1698634317540244
1499368330109,0.35797665369649767,-0.8915541313801785,-0.18402380407415864
1499368330141,0.3570000762951091,-0.8900892652780956,-0.17718776226443866
1499368330173,0.3535820553902491,-0.8944838635843442,-0.16888685435263584
1499368330205,0.3726253147173262,-0.8886243991760128,-0.18646524757763006
1499368330232,0.3696955825131605,-0.8871595330739299,-0.18841840238040763
1499368330264,0.3574883649958034,-0.9037613488975356,-0.1644922560463873
1499368330296,0.3657892729076062,-0.8881361104753185,-0.17181658655680154
1499368330328,0.37994964522774133,-0.8695811398489357,-0.19720759899290474
1499368330360,0.3609063859006634,-0.8876478217746242,-0.16888685435263584
1499368330392,0.37604333562218706,-0.8969253070878156,-0.16498054474708157
1499368330423,0.37604333562218706,-0.8832532234683756,-0.19671931029221046
1499368330455,0.37018387121385476,-0.8852063782711528,-0.17962920576791008
1499368330487,0.34918745708400056,-0.9008316166933699,-0.16791027695124727
1499368330519,0.3545586327916377,-0.8808117799649042,-0.2138094148165104
1499368330551,0.3296559090562292,-0.9369649805447469,-0.1400778210116731
1499368330583,0.3872739757381556,-0.8690928511482414,-0.20013733119707044
1499368330614,0.3779964904249642,-0.9101091020065613,-0.2401770046540017
1499368330646,0.3423514152742806,-0.9169451438162812,-0.19671931029221046
1499368330678,0.3667658503089948,-0.8842298008697642,-0.19916075379568188
1499368330710,0.34088654917219774,-0.8686045624475471,-0.18597695887693577
1499368330742,0.3389333943694206,-0.9008316166933699,-0.1952544441901276
1499368330774,0.37116044861524333,-0.9145037003128098,-0.1952544441901276
1499368330806,0.35260547798886055,-0.9081559472037841,-0.18988326848249049
1499368330837,0.34967574578469485,-0.8949721522850385,-0.21771572442206466
1499368330869,0.3355153734645606,-0.8939955748836499,-0.18060578316929865
1499368330901,0.35260547798886055,-0.8852063782711528,-0.20697337300679042
1499368330933,0.3574883649958034,-0.9052262149996184,-0.1928130006866562
1499368330965,0.3428397039749749,-0.9047379262989241,-0.19378957808804476
1499368330997,0.3628595407034405,-0.906202792401007,-0.20892652780956755
1499368331029,0.3032883192187379,-0.9076676585030898,-0.1732814526588844
1499368331060,0.35797665369649767,-0.8930189974822613,-0.1957427328908219
1499368331092,0.37116044861524333,-0.902784771496147,-0.22162203402761893
1499368331124,0.34967574578469485,-0.9018081940947584,-0.1762111848630501
1499368331156,0.3633478294041348,-0.8676279850461586,-0.21429770351720467
1499368331188,0.32819104295414636,-0.9032730601968413,-0.19720759899290474
1499368331220,0.3486991683833063,-0.9145037003128098,-0.20355535210193043
1499368331251,0.3423514152742806,-0.8808117799649042,-0.18402380407415864
1499368331283,0.3457694361791406,-0.8988784618905927,-0.20697337300679042
1499368331315,0.3428397039749749,-0.8954604409857327,-0.19720759899290474
1499368331347,0.36139467460135766,-0.906202792401007,-0.18158236057068722
1499368331379,0.3892271305409327,-0.8759288929579614,-0.2284580758373389
1499368331411,0.3394216830701149,-0.9232928969253069,-0.18646524757763006
1499368331443,0.3696955825131605,-0.8793469138628214,-0.19671931029221046
1499368331474,0.35016403448538913,-0.902784771496147,-0.20892652780956755
1499368331502,0.3174486915388721,-0.9369649805447469,-0.17669947356374438
1499368331534,0.32574959945067494,-0.8944838635843442,-0.17865262836652152
1499368331566,0.3506523231860834,-0.9032730601968413,-0.20697337300679042
1499368331598,0.31891355764095497,-0.9262226291294726,-0.1820706492713815
1499368331630,0.33405050736247777,-0.9032730601968413,-0.16888685435263584
1499368331662,0.3355153734645606,-0.9188982986190584,-0.17474631876096725
1499368331693,0.31891355764095497,-0.9184100099183641,-0.17767605096513295
1499368331725,0.30475318532082074,-0.8939955748836499,-0.16498054474708157
1499368331757,0.3296559090562292,-0.9101091020065613,-0.18353551537346435
1499368331789,0.3125658045319293,-0.9218280308232241,-0.17376974135957868
1499368331821,0.3389333943694206,-0.913038834210727,-0.18255893797207579
1499368331853,0.312077515831235,-0.9223163195239183,-0.17865262836652152
1499368331885,0.33502708476386633,-0.8954604409857327,-0.17376974135957868
1499368331916,0.34674601358052914,-0.9003433279926756,-0.1850003814755472
1499368331948,0.3384451056687263,-0.9281757839322498,-0.20257877470054186
1499368331980,0.3203784237430378,-0.9042496375982298,-0.19378957808804476
1499368332012,0.3184252689402607,-0.9037613488975356,-0.19330128938735047
1499368332044,0.32281986724650924,-0.9232928969253069,-0.1981841763942933
1499368332076,0.35260547798886055,-0.8935072861829556,-0.1981841763942933
1499368332107,0.3384451056687263,-0.9042496375982298,-0.1762111848630501
1499368332139,0.35260547798886055,-0.9154802777141984,-0.20355535210193043
1499368332171,0.33746852826733775,-0.8881361104753185,-0.16791027695124727
1499368332203,0.33453879606317205,-0.8886243991760128,-0.1981841763942933
1499368332235,0.3296559090562292,-0.9237811856260012,-0.18158236057068722
1499368332267,0.3364919508659492,-0.9047379262989241,-0.18793011367971335
1499368332299,0.3628595407034405,-0.895948729686427,-0.20062561989776473
1499368332330,0.341374837872892,-0.889112687876707,-0.1762111848630501
1499368332362,0.35553521019302625,-0.8974135957885099,-0.17718776226443866
1499368332394,0.351628900587472,-0.906202792401007,-0.21185626001373326
1499368332426,0.33698023956664347,-0.8900892652780956,-0.18402380407415864
1499368332458,0.3355153734645606,-0.909620813305867,-0.18109407186999293
1499368332490,0.3452811474784463,-0.9105973907072555,-0.1923247119859619
1499368332521,0.351628900587472,-0.895948729686427,-0.20502021820401328
1499368332553,0.35553521019302625,-0.8920424200808728,-0.20502021820401328
1499368332585,0.34674601358052914,-0.909620813305867,-0.21185626001373326
1499368332617,0.3535820553902491,-0.87006942854963,-0.21234454871442754
1499368332649,0.3570000762951091,-0.8793469138628214,-0.23089951934081032
1499368332681,0.36188296330205194,-0.892530708781567,-0.23920042725261315
1499368332713,0.3843442435339899,-0.8813000686655985,-0.2401770046540017
1499368332744,0.3662775616083005,-0.87690547035935,-0.21234454871442754
1499368332772,0.3775082017242699,-0.8861829556725414,-0.2167391470206761
1499368332804,0.3662775616083005,-0.8969253070878156,-0.20404364080262472
1499368332836,0.3638361181048291,-0.8974135957885099,-0.19623102159151617
1499368332868,0.35602349889372054,-0.8808117799649042,-0.20209048599984758
1499368332900,0.3653009842069119,-0.8759288929579614,-0.19671931029221046
1499368332932,0.36774242771038335,-0.8886243991760128,-0.1732814526588844
1499368332963,0.3696955825131605,-0.8979018844892042,-0.18402380407415864
1499368332995,0.3565117875944148,-0.8910658426794842,-0.1732814526588844
1499368333027,0.3662775616083005,-0.8876478217746242,-0.21283283741512182
1499368333059,0.3623712520027462,-0.906202792401007,-0.18744182497901862
1499368333091,0.3604180971999691,-0.8998550392919813,-0.18060578316929865
1499368333123,0.3633478294041348,-0.9066910811017013,-0.18890669108110192
1499368333155,0.3604180971999691,-0.8842298008697642,-0.19623102159151617
1499368333186,0.3638361181048291,-0.892530708781567,-0.1981841763942933
1499368333218,0.36823071641107763,-0.9032730601968413,-0.1986724650949876
1499368333250,0.3662775616083005,-0.8969253070878156,-0.17474631876096725
1499368333282,0.36139467460135766,-0.8847180895704585,-0.19085984588387905
1499368333314,0.3653009842069119,-0.8886243991760128,-0.17718776226443866
1499368333346,0.3599298084992748,-0.8954604409857327,-0.19134813458457334
1499368333377,0.35895323109788624,-0.9003433279926756,-0.1850003814755472
1499368333409,0.34918745708400056,-0.8949721522850385,-0.1610742351415273
1499368333441,0.34918745708400056,-0.9008316166933699,-0.16791027695124727
1499368333473,0.35553521019302625,-0.8944838635843442,-0.18744182497901862
1499368333505,0.3486991683833063,-0.9013199053940641,-0.1669336995498587
1499368333537,0.34967574578469485,-0.8969253070878156,-0.16888685435263584
1499368333568,0.3662775616083005,-0.899366750591287,-0.20355535210193043
1499368333600,0.35309376668955483,-0.8905775539787899,-0.17718776226443866
1499368333632,0.3638361181048291,-0.9003433279926756,-0.17523460746166153
1499368333664,0.3599298084992748,-0.9008316166933699,-0.17669947356374438
1499368333696,0.3486991683833063,-0.9008316166933699,-0.17767605096513295
1499368333728,0.3477225909819177,-0.9037613488975356,-0.19330128938735047
1499368333759,0.3609063859006634,-0.902784771496147,-0.18060578316929865
1499368333791,0.36725413900968906,-0.899366750591287,-0.18158236057068722
1499368333823,0.35260547798886055,-0.8983901731898984,-0.2016021972991533
1499368333855,0.3594415197985805,-0.8930189974822613,-0.1957427328908219
1499368333887,0.3657892729076062,-0.9052262149996184,-0.1952544441901276
1499368333919,0.3750667582207985,-0.8939955748836499,-0.20843823910887327
1499368333950,0.34918745708400056,-0.906202792401007,-0.18353551537346435
1499368333982,0.3667658503089948,-0.889112687876707,-0.20599679560540185
1499368334014,0.35309376668955483,-0.9008316166933699,-0.18841840238040763
1499368334042,0.3623712520027462,-0.8915541313801785,-0.20355535210193043
1499368334074,0.3594415197985805,-0.9003433279926756,-0.20794995040817899
1499368334106,0.36481269550621764,-0.8964370183871213,-0.19378957808804476
1499368334138,0.35895323109788624,-0.8930189974822613,-0.18988326848249049
1499368334170,0.344792858777752,-0.8871595330739299,-0.18646524757763006
1499368334202,0.34967574578469485,-0.9052262149996184,-0.20306706340123615
1499368334233,0.3628595407034405,-0.8905775539787899,-0.18109407186999293
1499368334265,0.3623712520027462,-0.9076676585030898,-0.19085984588387905
1499368334297,0.35846494239719195,-0.8944838635843442,-0.18793011367971335
1499368334329,0.3574883649958034,-0.8900892652780956,-0.20794995040817899
1499368334361,0.3423514152742806,-0.8930189974822613,-0.21136797131303897
1499368334393,0.35309376668955483,-0.8979018844892042,-0.19476615548943332
1499368334424,0.35016403448538913,-0.892530708781567,-0.1986724650949876
1499368334456,0.3540703440909434,-0.9018081940947584,-0.19671931029221046
1499368334488,0.351628900587472,-0.9032730601968413,-0.18255893797207579
1499368334520,0.34918745708400056,-0.8930189974822613,-0.17767605096513295
1499368334552,0.3570000762951091,-0.899366750591287,-0.20648508430609613
1499368334584,0.35211718928816627,-0.9003433279926756,-0.20550850690470757
1499368334615,0.35846494239719195,-0.8939955748836499,-0.20892652780956755
1499368334647,0.3574883649958034,-0.8910658426794842,-0.20306706340123615
1499368334679,0.34625772487983486,-0.9003433279926756,-0.19183642328526762
1499368334711,0.34967574578469485,-0.8847180895704585,-0.19916075379568188
1499368334743,0.35260547798886055,-0.8998550392919813,-0.1957427328908219
1499368334775,0.35504692149233197,-0.899366750591287,-0.20306706340123615
1499368334806,0.35602349889372054,-0.8866712443732356,-0.1850003814755472
1499368334838,0.3477225909819177,-0.9003433279926756,-0.20648508430609613
1499368334870,0.3633478294041348,-0.8979018844892042,-0.201113908598459
1499368334902,0.35895323109788624,-0.8900892652780956,-0.20013733119707044
1499368334934,0.3452811474784463,-0.8974135957885099,-0.19623102159151617
1499368334966,0.35260547798886055,-0.8979018844892042,-0.20306706340123615
1499368334997,0.36823071641107763,-0.8847180895704585,-0.18841840238040763
1499368335029,0.3755550469214928,-0.909620813305867,-0.1923247119859619
1499368335061,0.36188296330205194,-0.8964370183871213,-0.1850003814755472
1499368335093,0.3599298084992748,-0.8881361104753185,-0.1928130006866562
1499368335125,0.341374837872892,-0.8998550392919813,-0.19720759899290474
1499368335157,0.35211718928816627,-0.895948729686427,-0.17962920576791008
1499368335188,0.34039826047150346,-0.8905775539787899,-0.18841840238040763
1499368335220,0.3423514152742806,-0.9047379262989241,-0.19769588769359903
1499368335252,0.3301441977569235,-0.9047379262989241,-0.19134813458457334
1499368335284,0.3540703440909434,-0.9115739681086441,-0.18841840238040763
1499368335313,0.344792858777752,-0.895948729686427,-0.2074616617074847
1499368335344,0.3570000762951091,-0.899366750591287,-0.20990310521095612
1499368335376,0.341374837872892,-0.8930189974822613,-0.1732814526588844
1499368335408,0.3457694361791406,-0.8935072861829556,-0.1952544441901276
1499368335440,0.3423514152742806,-0.9149919890135041,-0.20013733119707044
1499368335472,0.3457694361791406,-0.9013199053940641,-0.19183642328526762
1499368335504,0.3301441977569235,-0.9081559472037841,-0.18402380407415864
1499368335535,0.3477225909819177,-0.8920424200808728,-0.20599679560540185
1499368335567,0.351628900587472,-0.9101091020065613,-0.1957427328908219
1499368335599,0.3692072938124662,-0.895948729686427,-0.21283283741512182
1499368335631,0.36139467460135766,-0.8900892652780956,-0.1854886701762415
1499368335663,0.3540703440909434,-0.9105973907072555,-0.18890669108110192
1499368335695,0.34674601358052914,-0.8920424200808728,-0.19476615548943332
1499368335726,0.35846494239719195,-0.8974135957885099,-0.19085984588387905
1499368335758,0.35309376668955483,-0.8896009765774013,-0.1854886701762415
1499368335790,0.3638361181048291,-0.8847180895704585,-0.21283283741512182
1499368335822,0.3609063859006634,-0.8954604409857327,-0.18793011367971335
1499368335854,0.35016403448538913,-0.9042496375982298,-0.18890669108110192
1499368335885,0.3486991683833063,-0.8964370183871213,-0.1850003814755472
1499368335917,0.35211718928816627,-0.8896009765774013,-0.1923247119859619
1499368335949,0.3653009842069119,-0.8964370183871213,-0.19134813458457334
1499368335981,0.3604180971999691,-0.9228046082246126,-0.20697337300679042
1499368336013,0.3696955825131605,-0.9330586709391926,-0.22943465323872747
1499368336045,0.35797665369649767,-0.9374532692454411,-0.23822384985122458
1499368336076,0.35309376668955483,-0.9076676585030898,-0.24896620126649882
1499368336108,0.3218432898451207,-0.8852063782711528,-0.15277332722972448
1499368336140,0.3833676661326013,-0.9125505455100327,-0.09662012664988184
1499368336172,0.3545586327916377,-0.9169451438162812,-0.025818265049210254
1499368336204,0.31940184634164925,-0.9145037003128098,-0.03802548256656735
1499368336236,0.33453879606317205,-0.8754406042572671,-0.05804531929503298
1499368336267,0.34039826047150346,-0.87006942854963,-0.04632639047837017
1499368336299,0.38873884184023844,-0.87690547035935,-0.09222552834363329
1499368336331,0.3784847791256585,-0.8827649347676814,-0.10833905546654465
1499368336363,0.4253604943923097,-0.9208514534218355,-0.11712825207904176
1499368336395,0.4409857328145268,-0.8764171816586557,-0.17376974135957868
1499368336427,0.43317311360341826,-0.9174334325169755,-0.18402380407415864
1499368336458,0.44586861982146964,-0.8646982528419929,-0.1820706492713815
1499368336490,0.47614251926451523,-0.8266117341878387,-0.2504310673685817
1499368336522,0.44879835202563534,-0.8402838178072787,-0.22796978713664462
1499368336554,0.4888380254825666,-0.7738765545128556,-0.28168154421301583
1499368336583,0.5034866865033951,-0.7611810482948043,-0.28461127641718154
1499368336614,0.5386434729533836,-0.7631342030975814,-0.3314869916838332
1499368336646,0.6040741588464176,-0.7113756008239873,-0.3417410543984132
1499368336678,0.5923552300297548,-0.7543450064850843,-0.3007248035400929
1499368336710,0.5386434729533836,-0.7660639353017471,-0.2616617074845502
1499368336742,0.5747768368047605,-0.7416495002670329,-0.2763103685053787
1499368336773,0.5523155565728235,-0.7680170901045242,-0.2641031509880216
1499368336805,0.5488975356679635,-0.76411078049897,-0.3075608453498129
1499368336837,0.5488975356679635,-0.7221179522392616,-0.29340047302967864
1499368336869,0.5664759288929577,-0.7294422827496758,-0.237247272449836
1499368336901,0.6402075226977955,-0.684031433585107,-0.30609597924773
1499368336933,0.6436255436026554,-0.6981918059052417,-0.2587319752803845
1499368336964,0.6314183260852984,-0.6928206301976045,-0.20697337300679042
1499368336996,0.6060273136491947,-0.6811017013809413,-0.23236438544289317
1499368337028,0.6148165102616918,-0.7191882200350959,-0.273380636301213
1499368337060,0.5952849622339205,-0.7094224460212102,-0.24164187075608456
1499368337092,0.6240939955748832,-0.7084458686198216,-0.2738689250019073
1499368337123,0.6250705729762727,-0.7055161364156559,-0.30951400015259
1499368337155,0.6123750667582204,-0.6879377431906617,-0.26556801709010447
1499368337187,0.6343480582894641,-0.7113756008239873,-0.2982833600366215
1499368337219,0.616769665064469,-0.6854962996871898,-0.3231860837720304
1499368337251,0.6011444266422519,-0.7084458686198216,-0.30267795834287003
1499368337283,0.6299534599832155,-0.7016098268101016,-0.3319752803845275
1499368337314,0.6187228198672461,-0.6566872663462271,-0.31097886625467286
1499368337346,0.6270237277790498,-0.6811017013809413,-0.33295185778591607
1499368337378,0.6392309452964069,-0.6767071030746927,-0.3349050125886932
1499368337410,0.6382543678950183,-0.6532692454413671,-0.3378347447928589
1499368337442,0.6382543678950183,-0.6566872663462271,-0.3378347447928589
1499368337474,0.6504615854123754,-0.64106202792401,-0.3285572594796675
1499368337505,0.6465552758068212,-0.6312962539101243,-0.33978789959563604
1499368337537,0.6533913176165411,-0.6459449149309529,-0.36127260242618453
1499368337569,0.6406958113984897,-0.6371557183184557,-0.3529716945143817
1499368337601,0.6494850080109869,-0.6200656137941558,-0.346623941405356
1499368337633,0.654856183718624,-0.6400854505226214,-0.34857709620813315
1499368337664,0.6538796063172354,-0.6298313878080415,-0.32123292896925326
1499368337696,0.654856183718624,-0.6337376974135958,-0.3436942092011903
1499368337728,0.6470435645075154,-0.6449683375295643,-0.32220950637064183
1499368337760,0.6499732967116811,-0.6381322957198443,-0.3261158159761961
1499368337792,0.6563210498207068,-0.6288548104066529,-0.34808880750743887
1499368337824,0.637766079194324,-0.6464332036316471,-0.3388113221942475
1499368337853,0.651438162813764,-0.6327611200122072,-0.3290455481803618
1499368337884,0.6465552758068212,-0.6195773250934615,-0.33099870298313894
1499368337916,0.6494850080109869,-0.6537575341420614,-0.3285572594796675
1499368337948,0.6597390707255668,-0.6542458228427557,-0.3407644769970246
1499368337980,0.6504615854123754,-0.6361791409170672,-0.3256275272755018
1499368338012,0.6489967193102926,-0.6586404211490042,-0.34320592050049603
1499368338043,0.6353246356908526,-0.6347142748149843,-0.3261158159761961
1499368338075,0.6597390707255668,-0.64448004882887,-0.3290455481803618
1499368338107,0.6465552758068212,-0.6405737392233157,-0.3163500419623104
1499368338139,0.6524147402151526,-0.6391088731212329,-0.33392843518730464
1499368338171,0.641184100099184,-0.6566872663462271,-0.3358815899900818
1499368338203,0.658274204623484,-0.6356908522163729,-0.3627374685282674
1499368338234,0.6402075226977955,-0.64106202792401,-0.33929961089494176
1499368338266,0.6450904097047383,-0.6439917601281757,-0.3436942092011903
1499368338298,0.6929427023727781,-0.6332494087129015,-0.4042420080872815
1499368338330,0.6685282673380639,-0.6503395132372014,-0.3944762340733958
1499368338362,0.6392309452964069,-0.6254367895017929,-0.29340047302967864
1499368338393,0.6690165560387582,-0.5966277561608302,-0.44281681544213036
1499368338425,0.6128633554589147,-0.6522926680399785,-0.31830319676508756
1499368338457,0.6426489662012669,-0.6356908522163729,-0.40912489509422434
1499368338489,0.658274204623484,-0.5834439612420845,-0.459418631265736
1499368338521,0.6489967193102926,-0.6415503166247043,-0.3524834058136874
1499368338553,0.6118867780575261,-0.6181124589913787,-0.3593194476234074
1499368338584,0.5830777447165634,-0.6400854505226214,-0.33002212558175037
1499368338616,0.5191119249256122,-0.6464332036316471,-0.23871213855191886
1499368338648,0.49958037689784085,-0.6225070572976272,-0.1732814526588844
1499368338680,0.5947966735332262,-1.2690012970168612,-0.688426031891356
1499368338712,0.18512245365072122,-0.4442816815442132,-0.17962920576791008
1499368338743,0.6929427023727781,-0.9496604867627987,-0.30463111314564717
1499368338775,0.5181353475242236,-0.7494621194781415,-0.2616617074845502
1499368338807,0.560128175783932,-0.7226062409399558,-0.24847791256580454
1499368338839,0.5591515983825435,-0.75043869687953,-0.22796978713664462
1499368338871,0.6050507362478061,-0.7186999313344016,-0.22943465323872747
1499368338903,0.5586633096818492,-0.7479972533760586,-0.2225986114290075
1499368338934,0.5508506904707406,-0.7763179980163271,-0.2494544899671931
1499368338966,0.5322957198443579,-0.7523918516823072,-0.2494544899671931
1499368338998,0.5640344853894863,-0.793408102540627,-0.2709391927977416
1499368339030,0.5786831464103148,-0.7631342030975814,-0.23089951934081032
1499368339062,0.5562218661783778,-0.7733882658121614,-0.2728923476005187
1499368339093,0.5528038452735178,-0.7782711528191042,-0.2924238956282901
1499368339123,0.5322957198443579,-0.7748531319142442,-0.2714274814984359
1499368339155,0.5420614938582435,-0.7489738307774472,-0.32172121766994755
1499368339186,0.5581750209811549,-0.7460440985732815,-0.2743572137026016
1499368339218,0.5562218661783778,-0.7323720149538415,-0.28705271992065295
1499368339250,0.5913786526283662,-0.714305333028153,-0.3388113221942475
1499368339282,0.5347371633478293,-0.727977416647593,-0.33929961089494176
1499368339314,0.5630579079880977,-0.7240711070420387,-0.3236743724727247
1499368339345,0.5972381170366976,-0.7011215381094074,-0.32220950637064183
1499368339377,0.5947966735332262,-0.7172350652323187,-0.3090257114518957
1499368339409,0.6079804684519718,-0.6977035172045474,-0.31830319676508756
1499368339441,0.5982146944380862,-0.7128404669260702,-0.3163500419623104
1499368339473,0.5747768368047605,-0.7191882200350959,-0.3090257114518957
1499368339505,0.5864957656214234,-0.7079575799191273,-0.3090257114518957
1499368339536,0.6206759746700232,-0.7084458686198216,-0.2909590295262072
1499368339568,0.6231174181734946,-0.7006332494087131,-0.3236743724727247
1499368339600,0.5835660334172577,-0.7084458686198216,-0.30853742275120144
1499368339632,0.5977264057373919,-0.6898908979934388,-0.33099870298313894
1499368339664,0.6187228198672461,-0.673777370870527,-0.3261158159761961
1499368339695,0.6196993972686347,-0.6835431448844127,-0.2924238956282901
1499368339727,0.6221408407721061,-0.6654764629587242,-0.3148851758602276
1499368339759,0.6260471503776612,-0.6830548561837184,-0.29877164873731576
1499368339791,0.6143282215609975,-0.687449454489967,-0.3134203097581447
1499368339823,0.6143282215609975,-0.6801251239795527,-0.3031662470435643
1499368339854,0.6153047989623861,-0.6835431448844127,-0.30609597924773
1499368339886,0.6436255436026554,-0.6776836804760813,-0.3163500419623104
1499368339918,0.6323949034866869,-0.6786602578774699,-0.31146715495536714
1499368339950,0.6216525520714118,-0.6864728770885784,-0.317326619363699
1499368339982,0.6402075226977955,-0.6796368352788584,-0.32416266117341896
1499368340014,0.6177462424658575,-0.6796368352788584,-0.30170138094148147
1499368340045,0.6265354390783555,-0.6757305256733042,-0.32465094987411325
1499368340077,0.6309300373846041,-0.6698710612649728,-0.32220950637064183
1499368340109,0.6196993972686347,-0.6762188143739984,-0.30853742275120144
1499368340141,0.6363012130922412,-0.6688944838635842,-0.3324635690852218
1499368340173,0.6245822842755775,-0.6684061951628899,-0.32465094987411325
1499368340204,0.6323949034866869,-0.6664530403601128,-0.3388113221942475
1499368340236,0.6260471503776612,-0.6728007934691385,-0.3124437323567557
1499368340268,0.6475318532082097,-0.6674296177615013,-0.3290455481803618
1499368340300,0.6270237277790498,-0.6713359273670556,-0.30804913405050716
1499368340332,0.6294651712825212,-0.6796368352788584,-0.3256275272755018
1499368340363,0.6265354390783555,-0.6527809567406728,-0.3266041046768904
1499368340393,0.6280003051804384,-0.6791485465781641,-0.32220950637064183
1499368340425,0.6275120164797441,-0.6620584420538642,-0.3192797741664761
1499368340456,0.6260471503776612,-0.687449454489967,-0.3148851758602276
1499368340488,0.6236057068741889,-0.677195391775387,-0.31146715495536714
1499368340520,0.6265354390783555,-0.6718242160677499,-0.30560769054703574
1499368340552,0.6314183260852984,-0.6708476386663613,-0.32758068207827895
1499368340584,0.6187228198672461,-0.6728007934691385,-0.30804913405050716
1499368340615,0.6221408407721061,-0.6815899900816356,-0.3036545357442586
1499368340647,0.6299534599832155,-0.6791485465781641,-0.32758068207827895
1499368340679,0.6182345311665518,-0.6869611657892727,-0.31293202105745044
1499368340711,0.6314183260852984,-0.6732890821698327,-0.32709239337758467
1499368340743,0.6245822842755775,-0.6728007934691385,-0.320744640268559
1499368340774,0.6304417486839098,-0.6688944838635842,-0.3090257114518957
1499368340806,0.6216525520714118,-0.6615701533531699,-0.3295338368810561
1499368340838,0.6245822842755775,-0.6762188143739984,-0.3226977950713361
1499368340870,0.6182345311665518,-0.6815899900816356,-0.32123292896925326
1499368340902,0.616769665064469,-0.6659647516594185,-0.3231860837720304
1499368340934,0.6250705729762727,-0.6825665674830241,-0.3065842679484243
1499368340965,0.6304417486839098,-0.6659647516594185,-0.3319752803845275
1499368340997,0.6333714808880755,-0.6811017013809413,-0.30609597924773
1499368341029,0.6216525520714118,-0.6791485465781641,-0.30560769054703574
1499368341061,0.6333714808880755,-0.6742656595712213,-0.3388113221942475
1499368341093,0.6226291294728004,-0.6679179064621956,-0.3197680628671704
1499368341124,0.6177462424658575,-0.6859845883878841,-0.313908598458839
1499368341156,0.641184100099184,-0.6625467307545585,-0.3383230334935532
1499368341188,0.6270237277790498,-0.6786602578774699,-0.3226977950713361
1499368341220,0.6319066147859926,-0.6635233081559471,-0.3226977950713361
1499368341252,0.6333714808880755,-0.6649881742580299,-0.32758068207827895
1499368341283,0.6270237277790498,-0.6659647516594185,-0.30951400015259
1499368341315,0.6250705729762727,-0.6757305256733042,-0.3197680628671704
1499368341347,0.625558861676967,-0.6742656595712213,-0.3119554436560614
1499368341379,0.6265354390783555,-0.666941329060807,-0.3295338368810561
1499368341411,0.6143282215609975,-0.6728007934691385,-0.31879148546578184
1499368341442,0.6319066147859926,-0.6693827725642785,-0.3319752803845275
1499368341474,0.6245822842755775,-0.6625467307545585,-0.3178149080643933
1499368341506,0.6260471503776612,-0.6752422369726099,-0.30804913405050716
1499368341538,0.6343480582894641,-0.6630350194552528,-0.31586175326161614
1499368341570,0.6309300373846041,-0.6742656595712213,-0.3231860837720304
1499368341601,0.6289768825818269,-0.6757305256733042,-0.3119554436560614
1499368341633,0.6216525520714118,-0.6786602578774699,-0.33099870298313894
1499368341663,0.6216525520714118,-0.6698710612649728,-0.3148851758602276
1499368341695,0.6328831921873812,-0.6596169985503928,-0.31097886625467286
1499368341726,0.6275120164797441,-0.6752422369726099,-0.313908598458839
1499368341758,0.6323949034866869,-0.6615701533531699,-0.32220950637064183
1499368341790,0.6236057068741889,-0.6713359273670556,-0.31586175326161614
1499368341822,0.6323949034866869,-0.6728007934691385,-0.3192797741664761
1499368341854,0.6236057068741889,-0.6742656595712213,-0.30804913405050716
1499368341885,0.6280003051804384,-0.6674296177615013,-0.29877164873731576
1499368341917,0.6245822842755775,-0.6708476386663613,-0.3148851758602276
1499368341949,0.6323949034866869,-0.6654764629587242,-0.3192797741664761
1499368341981,0.6372777904936298,-0.677195391775387,-0.3031662470435643
1499368342013,0.6211642633707175,-0.6767071030746927,-0.3178149080643933
1499368342044,0.6328831921873812,-0.6688944838635842,-0.3290455481803618
1499368342076,0.6240939955748832,-0.677195391775387,-0.30560769054703574
1499368342108,0.6494850080109869,-0.6625467307545585,-0.32220950637064183
1499368342140,0.6265354390783555,-0.6903791866941331,-0.3070725566491186
1499368342172,0.6201876859693289,-0.6732890821698327,-0.3075608453498129
1499368342203,0.6216525520714118,-0.6767071030746927,-0.33099870298313894
1499368342235,0.6206759746700232,-0.6713359273670556,-0.30609597924773
1499368342267,0.6387426565957126,-0.6786602578774699,-0.32758068207827895
1499368342299,0.6231174181734946,-0.6728007934691385,-0.3134203097581447
1499368342331,0.637766079194324,-0.687449454489967,-0.3143968871595333
1499368342362,0.6328831921873812,-0.6635233081559471,-0.31097886625467286
1499368342394,0.6314183260852984,-0.6820782787823298,-0.31146715495536714
1499368342426,0.6382543678950183,-0.6732890821698327,-0.29584191653315006
1499368342458,0.6221408407721061,-0.6825665674830241,-0.2938887617303729
1499368342490,0.6382543678950183,-0.6815899900816356,-0.3256275272755018
1499368342522,0.6240939955748832,-0.6796368352788584,-0.30804913405050716
1499368342553,0.6275120164797441,-0.677195391775387,-0.30463111314564717
1499368342585,0.6201876859693289,-0.6801251239795527,-0.3012130922407872
1499368342617,0.6416723887998783,-0.6728007934691385,-0.3163500419623104
1499368342649,0.6245822842755775,-0.6767071030746927,-0.3070725566491186
1499368342681,0.6363012130922412,-0.6693827725642785,-0.3036545357442586
1499368342712,0.6289768825818269,-0.6796368352788584,-0.2909590295262072
1499368342744,0.6328831921873812,-0.6718242160677499,-0.32465094987411325
1499368342776,0.6333714808880755,-0.6864728770885784,-0.32806897077897323
1499368342808,0.6240939955748832,-0.6747539482719156,-0.3031662470435643
1499368342840,0.6328831921873812,-0.6796368352788584,-0.2914473182269015
1499368342871,0.6226291294728004,-0.6757305256733042,-0.31097886625467286
1499368342903,0.641184100099184,-0.6752422369726099,-0.30218966964217575
1499368342933,0.6192111085679404,-0.6693827725642785,-0.29925993743801005
1499368342965,0.6260471503776612,-0.6762188143739984,-0.3192797741664761
1499368342996,0.6265354390783555,-0.6820782787823298,-0.3041428244449529
1499368343028,0.6289768825818269,-0.6728007934691385,-0.3134203097581447
1499368343060,0.6314183260852984,-0.673777370870527,-0.28705271992065295
1499368343092,0.6382543678950183,-0.684031433585107,-0.2919356069275958
1499368343124,0.6363012130922412,-0.6835431448844127,-0.3041428244449529
1499368343155,0.6309300373846041,-0.6811017013809413,-0.29877164873731576
1499368343187,0.6372777904936298,-0.6698710612649728,-0.3226977950713361
1499368343219,0.6211642633707175,-0.6835431448844127,-0.30463111314564717
1499368343251,0.637766079194324,-0.6698710612649728,-0.3070725566491186
1499368343283,0.6363012130922412,-0.6615701533531699,-0.3070725566491186
1499368343314,0.6328831921873812,-0.6869611657892727,-0.29877164873731576
1499368343346,0.6240939955748832,-0.6762188143739984,-0.2982833600366215
1499368343378,0.6387426565957126,-0.6801251239795527,-0.3134203097581447
1499368343410,0.6392309452964069,-0.6776836804760813,-0.2938887617303729
1499368343442,0.6367895017929355,-0.670359349965667,-0.2982833600366215
1499368343473,0.6289768825818269,-0.6728007934691385,-0.3226977950713361
1499368343505,0.6284885938811327,-0.6742656595712213,-0.30853742275120144
1499368343537,0.6265354390783555,-0.6801251239795527,-0.30609597924773
1499368343569,0.6348363469901583,-0.6767071030746927,-0.30804913405050716
1499368343601,0.6216525520714118,-0.6854962996871898,-0.3041428244449529
1499368343632,0.6280003051804384,-0.6747539482719156,-0.2894941634241244
1499368343664,0.6226291294728004,-0.6693827725642785,-0.2855878538185701
1499368343696,0.6250705729762727,-0.6776836804760813,-0.3075608453498129
1499368343728,0.6265354390783555,-0.6786602578774699,-0.29340047302967864
1499368343760,0.6382543678950183,-0.6776836804760813,-0.32123292896925326
1499368343791,0.6050507362478061,-0.6752422369726099,-0.3104905775539786
1499368343823,0.6455786984054326,-0.6796368352788584,-0.30853742275120144
1499368343855,0.6182345311665518,-0.6742656595712213,-0.31097886625467286
1499368343887,0.641184100099184,-0.6791485465781641,-0.30804913405050716
1499368343919,0.625558861676967,-0.6640115968566414,-0.30218966964217575
1499368343950,0.6416723887998783,-0.6811017013809413,-0.2909590295262072
1499368343982,0.6328831921873812,-0.6781719691767756,-0.3104905775539786
1499368344014,0.6358129243915469,-0.6718242160677499,-0.31293202105745044
1499368344046,0.6363012130922412,-0.6752422369726099,-0.313908598458839
1499368344078,0.6275120164797441,-0.6796368352788584,-0.2938887617303729
1499368344109,0.6323949034866869,-0.666941329060807,-0.3070725566491186
1499368344141,0.6343480582894641,-0.6698710612649728,-0.3031662470435643
1499368344173,0.6363012130922412,-0.6830548561837184,-0.317326619363699
1499368344203,0.6397192339971012,-0.6698710612649728,-0.3075608453498129
1499368344235,0.6143282215609975,-0.6732890821698327,-0.29925993743801005
1499368344266,0.6289768825818269,-0.6718242160677499,-0.31830319676508756
1499368344298,0.6372777904936298,-0.6728007934691385,-0.29877164873731576
1499368344330,0.6201876859693289,-0.6723125047684442,-0.2890058747234301
1499368344362,0.6455786984054326,-0.6791485465781641,-0.3261158159761961
1499368344394,0.6192111085679404,-0.6644998855573356,-0.32220950637064183
1499368344425,0.6367895017929355,-0.6830548561837184,-0.31293202105745044
1499368344457,0.6289768825818269,-0.6728007934691385,-0.2948653391317615
1499368344489,0.6216525520714118,-0.6688944838635842,-0.30463111314564717
1499368344521,0.6343480582894641,-0.6708476386663613,-0.3168383306630047
1499368344553,0.6211642633707175,-0.680613412680247,-0.3007248035400929
1499368344584,0.644602121004044,-0.6811017013809413,-0.3124437323567557
1499368344616,0.6392309452964069,-0.6713359273670556,-0.31830319676508756
1499368344648,0.6216525520714118,-0.680613412680247,-0.3012130922407872
1499368344680,0.6216525520714118,-0.6801251239795527,-0.30463111314564717
1499368344712,0.6270237277790498,-0.6728007934691385,-0.31293202105745044
1499368344743,0.6157930876630804,-0.680613412680247,-0.3119554436560614
1499368344775,0.6294651712825212,-0.673777370870527,-0.313908598458839
1499368344807,0.6260471503776612,-0.6786602578774699,-0.30170138094148147
1499368344839,0.6275120164797441,-0.6718242160677499,-0.3236743724727247
1499368344871,0.6299534599832155,-0.6732890821698327,-0.3104905775539786
1499368344902,0.637766079194324,-0.6747539482719156,-0.3314869916838332
1499368344934,0.6221408407721061,-0.6776836804760813,-0.313908598458839
1499368344966,0.6250705729762727,-0.6825665674830241,-0.3178149080643933
1499368344998,0.6211642633707175,-0.670359349965667,-0.3178149080643933
1499368345030,0.6236057068741889,-0.6796368352788584,-0.3012130922407872
1499368345061,0.6206759746700232,-0.6791485465781641,-0.2948653391317615
1499368345093,0.6231174181734946,-0.6752422369726099,-0.3104905775539786
1499368345125,0.6348363469901583,-0.6869611657892727,-0.3124437323567557
1499368345157,0.6260471503776612,-0.6732890821698327,-0.31293202105745044
1499368345189,0.6270237277790498,-0.6791485465781641,-0.32123292896925326
1499368345220,0.625558861676967,-0.6732890821698327,-0.30804913405050716
1499368345252,0.625558861676967,-0.6732890821698327,-0.32416266117341896
1499368345284,0.6280003051804384,-0.6781719691767756,-0.30804913405050716
1499368345316,0.6192111085679404,-0.680613412680247,-0.3285572594796675
1499368345348,0.625558861676967,-0.6776836804760813,-0.31879148546578184
1499368345379,0.6421606775005726,-0.6732890821698327,-0.31293202105745044
1499368345411,0.6314183260852984,-0.6757305256733042,-0.3075608453498129
1499368345443,0.6265354390783555,-0.6781719691767756,-0.3168383306630047
1499368345473,0.6309300373846041,-0.6747539482719156,-0.3192797741664761
1499368345505,0.6275120164797441,-0.6820782787823298,-0.3148851758602276
1499368345536,0.6157930876630804,-0.6786602578774699,-0.3163500419623104
1499368345568,0.6358129243915469,-0.6718242160677499,-0.33636987869077606
1499368345600,0.6118867780575261,-0.6718242160677499,-0.28656443121995867
1499368345632,0.6402075226977955,-0.6762188143739984,-0.320744640268559
1499368345664,0.6187228198672461,-0.6644998855573356,-0.30609597924773
1499368345695,0.6299534599832155,-0.6757305256733042,-0.30853742275120144
1499368345727,0.6196993972686347,-0.6869611657892727,-0.313908598458839
1499368345759,0.6245822842755775,-0.6776836804760813,-0.3124437323567557
1499368345791,0.625558861676967,-0.6796368352788584,-0.31830319676508756
1499368345823,0.6314183260852984,-0.6674296177615013,-0.3090257114518957
1499368345854,0.6240939955748832,-0.6767071030746927,-0.3070725566491186
1499368345886,0.6216525520714118,-0.6718242160677499,-0.32465094987411325
1499368345918,0.6196993972686347,-0.680613412680247,-0.31879148546578184
1499368345950,0.6270237277790498,-0.6869611657892727,-0.33099870298313894
1499368345982,0.6338597695887698,-0.6776836804760813,-0.317326619363699
1499368346013,0.6192111085679404,-0.6894026092927446,-0.31830319676508756
1499368346045,0.6226291294728004,-0.6615701533531699,-0.3148851758602276
1499368346077,0.6153047989623861,-0.6781719691767756,-0.3065842679484243
1499368346109,0.6177462424658575,-0.6796368352788584,-0.31293202105745044
1499368346141,0.6240939955748832,-0.684031433585107,-0.29974822613870433
1499368346172,0.6250705729762727,-0.6786602578774699,-0.3285572594796675
1499368346204,0.6157930876630804,-0.6757305256733042,-0.31586175326161614
1499368346236,0.6299534599832155,-0.6801251239795527,-0.3236743724727247
1499368346268,0.6319066147859926,-0.666941329060807,-0.31293202105745044
1499368346300,0.625558861676967,-0.6786602578774699,-0.29681849393453863
1499368346331,0.6245822842755775,-0.6830548561837184,-0.3197680628671704
1499368346363,0.6123750667582204,-0.6815899900816356,-0.3104905775539786
1499368346395,0.6358129243915469,-0.6894026092927446,-0.3163500419623104
1499368346427,0.6060273136491947,-0.6903791866941331,-0.3036545357442586
1499368346458,0.616769665064469,-0.6776836804760813,-0.3007248035400929
1499368346490,0.6216525520714118,-0.6957503624017702,-0.29047074082551294
1499368346522,0.6177462424658575,-0.6854962996871898,-0.313908598458839
1499368346554,0.6319066147859926,-0.6781719691767756,-0.2938887617303729
1499368346586,0.6138399328603033,-0.6889143205920503,-0.3178149080643933
1499368346617,0.6240939955748832,-0.6791485465781641,-0.31586175326161614
1499368346649,0.6084687571526661,-0.695262073701076,-0.30267795834287003
1499368346681,0.6221408407721061,-0.6796368352788584,-0.2894941634241244
1499368346713,0.6353246356908526,-0.6903791866941331,-0.2973067826352329
1499368346743,0.6192111085679404,-0.677195391775387,-0.3075608453498129
1499368346775,0.6338597695887698,-0.6859845883878841,-0.3319752803845275
1499368346807,0.6260471503776612,-0.6923323414969103,-0.29681849393453863
1499368346838,0.6231174181734946,-0.6786602578774699,-0.30463111314564717
1499368346870,0.6250705729762727,-0.6913557640955217,-0.31586175326161614
1499368346902,0.6182345311665518,-0.6947737850003817,-0.30218966964217575
1499368346934,0.6309300373846041,-0.6791485465781641,-0.32123292896925326
1499368346965,0.6245822842755775,-0.6757305256733042,-0.31586175326161614
1499368346997,0.6201876859693289,-0.6854962996871898,-0.30853742275120144
1499368347029,0.6289768825818269,-0.6762188143739984,-0.29974822613870433
1499368347061,0.6304417486839098,-0.6825665674830241,-0.31293202105745044
1499368347093,0.6211642633707175,-0.6752422369726099,-0.3031662470435643
1499368347124,0.6348363469901583,-0.6889143205920503,-0.3090257114518957
1499368347156,0.616769665064469,-0.6859845883878841,-0.30804913405050716
1499368347188,0.6358129243915469,-0.6879377431906617,-0.3065842679484243
1499368347220,0.625558861676967,-0.6815899900816356,-0.32220950637064183
1499368347252,0.6294651712825212,-0.687449454489967,-0.3012130922407872
1499368347283,0.6240939955748832,-0.6923323414969103,-0.30853742275120144
1499368347315,0.6206759746700232,-0.6830548561837184,-0.30170138094148147
1499368347347,0.6343480582894641,-0.6811017013809413,-0.3041428244449529
1499368347379,0.6177462424658575,-0.6781719691767756,-0.3041428244449529
1499368347411,0.6280003051804384,-0.6894026092927446,-0.3134203097581447
1499368347442,0.6299534599832155,-0.680613412680247,-0.30951400015259
1499368347474,0.6128633554589147,-0.6835431448844127,-0.2894941634241244
1499368347506,0.6192111085679404,-0.6879377431906617,-0.313908598458839
1499368347538,0.6172579537651632,-0.6801251239795527,-0.3163500419623104
1499368347569,0.6319066147859926,-0.6767071030746927,-0.3285572594796675
1499368347601,0.6236057068741889,-0.6864728770885784,-0.32123292896925326
1499368347633,0.6221408407721061,-0.6854962996871898,-0.3007248035400929
1499368347665,0.6265354390783555,-0.6752422369726099,-0.31879148546578184
1499368347697,0.6172579537651632,-0.6859845883878841,-0.313908598458839
1499368347728,0.6192111085679404,-0.6781719691767756,-0.3197680628671704
1499368347760,0.6231174181734946,-0.6776836804760813,-0.3143968871595333
1499368347792,0.6123750667582204,-0.677195391775387,-0.29974822613870433
1499368347824,0.6172579537651632,-0.6767071030746927,-0.3148851758602276
1499368347856,0.6216525520714118,-0.6786602578774699,-0.3065842679484243
1499368347887,0.6143282215609975,-0.6762188143739984,-0.3070725566491186
1499368347919,0.6172579537651632,-0.6889143205920503,-0.3178149080643933
1499368347951,0.6172579537651632,-0.6684061951628899,-0.3290455481803618
1499368347983,0.6201876859693289,-0.6928206301976045,-0.29925993743801005
1499368348013,0.6250705729762727,-0.680613412680247,-0.31293202105745044
1499368348045,0.6240939955748832,-0.6869611657892727,-0.32709239337758467
1499368348077,0.6177462424658575,-0.6718242160677499,-0.30804913405050716
1499368348108,0.616769665064469,-0.6723125047684442,-0.30853742275120144
1499368348140,0.609933623254749,-0.6835431448844127,-0.30853742275120144
1499368348172,0.6221408407721061,-0.6879377431906617,-0.3168383306630047
1499368348204,0.6206759746700232,-0.6864728770885784,-0.30853742275120144
1499368348235,0.6128633554589147,-0.6869611657892727,-0.2948653391317615
1499368348267,0.6201876859693289,-0.6859845883878841,-0.3148851758602276
1499368348299,0.6153047989623861,-0.6923323414969103,-0.32806897077897323
1499368348331,0.6196993972686347,-0.6889143205920503,-0.3148851758602276
1499368348363,0.6172579537651632,-0.6786602578774699,-0.31879148546578184
1499368348394,0.6196993972686347,-0.6854962996871898,-0.2772869459067673
1499368348426,0.6172579537651632,-0.6894026092927446,-0.3197680628671704
1499368348458,0.6138399328603033,-0.6801251239795527,-0.320744640268559
1499368348490,0.6011444266422519,-0.6903791866941331,-0.31293202105745044
1499368348522,0.6206759746700232,-0.6693827725642785,-0.33636987869077606
1499368348553,0.6182345311665518,-0.6815899900816356,-0.30804913405050716
1499368348585,0.6157930876630804,-0.6933089188982988,-0.3197680628671704
1499368348617,0.6201876859693289,-0.6708476386663613,-0.3163500419623104
1499368348649,0.6118867780575261,-0.688426031891356,-0.3148851758602276
1499368348681,0.6187228198672461,-0.6732890821698327,-0.3261158159761961
1499368348712,0.6138399328603033,-0.6923323414969103,-0.31146715495536714
1499368348744,0.6172579537651632,-0.6854962996871898,-0.3124437323567557
1499368348776,0.6182345311665518,-0.6796368352788584,-0.3163500419623104
1499368348808,0.6196993972686347,-0.6947737850003817,-0.3031662470435643
1499368348839,0.609933623254749,-0.6845197222858013,-0.3231860837720304
1499368348871,0.6143282215609975,-0.6791485465781641,-0.3344167238879989
1499368348903,0.6070038910505833,-0.6864728770885784,-0.32172121766994755
1499368348935,0.6172579537651632,-0.691844052796216,-0.3148851758602276
1499368348967,0.6201876859693289,-0.687449454489967,-0.32123292896925326
1499368348998,0.6206759746700232,-0.6859845883878841,-0.3104905775539786
1499368349030,0.6089570458533604,-0.6815899900816356,-0.3070725566491186
1499368349062,0.609933623254749,-0.6801251239795527,-0.31586175326161614
1499368349094,0.606515602349889,-0.6835431448844127,-0.32172121766994755
1499368349126,0.6216525520714118,-0.6947737850003817,-0.320744640268559
1499368349157,0.6084687571526661,-0.6850080109864956,-0.313908598458839
1499368349189,0.6206759746700232,-0.6908674753948274,-0.3041428244449529
1499368349221,0.6323949034866869,-0.6757305256733042,-0.3197680628671704
1499368349253,0.6079804684519718,-0.6894026092927446,-0.2894941634241244
1499368349283,0.6128633554589147,-0.6747539482719156,-0.31146715495536714
1499368349315,0.6089570458533604,-0.6767071030746927,-0.3197680628671704
1499368349347,0.6153047989623861,-0.6825665674830241,-0.30804913405050716
1499368349378,0.6123750667582204,-0.6894026092927446,-0.3007248035400929
1499368349410,0.6211642633707175,-0.6898908979934388,-0.317326619363699
1499368349442,0.6157930876630804,-0.6825665674830241,-0.30463111314564717
1499368349474,0.6216525520714118,-0.6801251239795527,-0.31586175326161614
1499368349506,0.6216525520714118,-0.6835431448844127,-0.313908598458839
1499368349537,0.6084687571526661,-0.6923323414969103,-0.30853742275120144
1499368349569,0.6216525520714118,-0.6879377431906617,-0.3226977950713361
1499368349601,0.6280003051804384,-0.6830548561837184,-0.3104905775539786
1499368349633,0.6143282215609975,-0.6903791866941331,-0.2977950713359272
1499368349664,0.6363012130922412,-0.6908674753948274,-0.30463111314564717
1499368349696,0.6079804684519718,-0.6825665674830241,-0.31586175326161614
1499368349728,0.6299534599832155,-0.684031433585107,-0.31586175326161614
1499368349760,0.6094453345540547,-0.6688944838635842,-0.31879148546578184
1499368349792,0.6192111085679404,-0.7011215381094074,-0.3124437323567557
1499368349823,0.6319066147859926,-0.6962386511024645,-0.3104905775539786
1499368349855,0.6216525520714118,-0.6957503624017702,-0.3036545357442586
1499368349887,0.6128633554589147,-0.6776836804760813,-0.33002212558175037
1499368349919,0.6104219119554433,-0.6684061951628899,-0.2977950713359272
1499368349951,0.6240939955748832,-0.6815899900816356,-0.31097886625467286
1499368349982,0.6143282215609975,-0.6688944838635842,-0.2938887617303729
1499368350014,0.6240939955748832,-0.7025864042114902,-0.3065842679484243
1499368350046,0.6079804684519718,-0.6933089188982988,-0.2909590295262072
1499368350078,0.6231174181734946,-0.6933089188982988,-0.3036545357442586
1499368350109,0.6157930876630804,-0.6820782787823298,-0.3163500419623104
1499368350141,0.6245822842755775,-0.6688944838635842,-0.31586175326161614
1499368350173,0.6187228198672461,-0.687449454489967,-0.30218966964217575
1499368350205,0.6260471503776612,-0.6684061951628899,-0.3168383306630047
1499368350237,0.6182345311665518,-0.6967269398031588,-0.3012130922407872
1499368350268,0.5991912718394747,-0.7035629816128788,-0.2914473182269015
1499368350300,0.6162813763637747,-0.6913557640955217,-0.30951400015259
1499368350332,0.6123750667582204,-0.687449454489967,-0.3178149080643933
1499368350364,0.616769665064469,-0.6928206301976045,-0.2919356069275958
1499368350396,0.6118867780575261,-0.6815899900816356,-0.32709239337758467
1499368350427,0.6153047989623861,-0.6869611657892727,-0.3124437323567557
1499368350459,0.6089570458533604,-0.6879377431906617,-0.29877164873731576
1499368350491,0.6177462424658575,-0.6879377431906617,-0.313908598458839
1499368350523,0.6187228198672461,-0.6908674753948274,-0.30853742275120144
1499368350553,0.6153047989623861,-0.7045395590142673,-0.3163500419623104
1499368350585,0.6079804684519718,-0.6835431448844127,-0.3104905775539786
1499368350617,0.6094453345540547,-0.6908674753948274,-0.2894941634241244
1499368350648,0.6153047989623861,-0.6854962996871898,-0.3197680628671704
1499368350680,0.6123750667582204,-0.6864728770885784,-0.3134203097581447
1499368350712,0.616769665064469,-0.6845197222858013,-0.3285572594796675
1499368350744,0.609933623254749,-0.6913557640955217,-0.3192797741664761
1499368350775,0.6113984893568318,-0.6869611657892727,-0.29974822613870433
1499368350807,0.6201876859693289,-0.6845197222858013,-0.31097886625467286
1499368350839,0.6250705729762727,-0.6967269398031588,-0.30609597924773
1499368350871,0.592843518730449,-0.6923323414969103,-0.30951400015259
1499368350903,0.6148165102616918,-0.6913557640955217,-0.30951400015259
1499368350934,0.6060273136491947,-0.6791485465781641,-0.3163500419623104
1499368350966,0.6265354390783555,-0.6957503624017702,-0.3168383306630047
1499368350998,0.6123750667582204,-0.6908674753948274,-0.2977950713359272
1499368351030,0.616769665064469,-0.6820782787823298,-0.31293202105745044
1499368351062,0.6143282215609975,-0.6825665674830241,-0.3197680628671704
1499368351093,0.616769665064469,-0.7001449607080188,-0.313908598458839
1499368351125,0.6128633554589147,-0.6762188143739984,-0.30560769054703574
1499368351157,0.6192111085679404,-0.6991683833066302,-0.31146715495536714
1499368351189,0.6187228198672461,-0.6811017013809413,-0.32806897077897323
1499368351220,0.6118867780575261,-0.6864728770885784,-0.3065842679484243
1499368351252,0.6260471503776612,-0.6742656595712213,-0.31293202105745044
1499368351284,0.6182345311665518,-0.6942854962996874,-0.30804913405050716
1499368351316,0.6153047989623861,-0.6801251239795527,-0.3143968871595333
1499368351348,0.6270237277790498,-0.6732890821698327,-0.3319752803845275
1499368351379,0.6109102006561375,-0.6894026092927446,-0.3168383306630047
1499368351411,0.613351644159609,-0.6854962996871898,-0.3236743724727247
1499368351443,0.613351644159609,-0.6854962996871898,-0.29925993743801005
1499368351475,0.616769665064469,-0.6913557640955217,-0.30951400015259
1499368351506,0.6143282215609975,-0.6825665674830241,-0.3168383306630047
1499368351538,0.6177462424658575,-0.6894026092927446,-0.30804913405050716
1499368351570,0.6094453345540547,-0.6815899900816356,-0.30170138094148147
1499368351602,0.6192111085679404,-0.6830548561837184,-0.3143968871595333
1499368351634,0.5987029831387805,-0.6957503624017702,-0.3090257114518957
1499368351665,0.6074921797512776,-0.6815899900816356,-0.31830319676508756
1499368351697,0.6177462424658575,-0.6981918059052417,-0.32465094987411325
1499368351729,0.6060273136491947,-0.7035629816128788,-0.30951400015259
1499368351761,0.6182345311665518,-0.677195391775387,-0.3192797741664761
1499368351793,0.6104219119554433,-0.6879377431906617,-0.29340047302967864
1499368351823,0.606515602349889,-0.6864728770885784,-0.3065842679484243
1499368351855,0.609933623254749,-0.6742656595712213,-0.3197680628671704
1499368351887,0.6074921797512776,-0.6981918059052417,-0.29681849393453863
1499368351918,0.6157930876630804,-0.6908674753948274,-0.31586175326161614
1499368351950,0.6192111085679404,-0.6947737850003817,-0.3192797741664761
1499368351982,0.6084687571526661,-0.7040512703135731,-0.313908598458839
1499368352014,0.6094453345540547,-0.6835431448844127,-0.31146715495536714
1499368352045,0.6079804684519718,-0.6889143205920503,-0.3124437323567557
1499368352077,0.6138399328603033,-0.6947737850003817,-0.32806897077897323
1499368352109,0.6006561379415576,-0.7035629816128788,-0.3041428244449529
1499368352141,0.6118867780575261,-0.6986800946059359,-0.30609597924773
1499368352173,0.6050507362478061,-0.687449454489967,-0.3124437323567557
1499368352204,0.6021210040436404,-0.6972152285038531,-0.30609597924773
1499368352236,0.6221408407721061,-0.6991683833066302,-0.31097886625467286
1499368352268,0.609933623254749,-0.6933089188982988,-0.3143968871595333
1499368352300,0.6138399328603033,-0.6908674753948274,-0.3314869916838332
1499368352331,0.6094453345540547,-0.6947737850003817,-0.317326619363699
1499368352363,0.6182345311665518,-0.6869611657892727,-0.3031662470435643
1499368352395,0.6060273136491947,-0.695262073701076,-0.3226977950713361
1499368352427,0.6148165102616918,-0.6981918059052417,-0.29925993743801005
1499368352459,0.6211642633707175,-0.6933089188982988,-0.30560769054703574
1499368352490,0.6177462424658575,-0.691844052796216,-0.3226977950713361
1499368352522,0.6211642633707175,-0.684031433585107,-0.3119554436560614
1499368352554,0.603097581445029,-0.6815899900816356,-0.3065842679484243
1499368352586,0.6211642633707175,-0.6859845883878841,-0.3007248035400929
1499368352618,0.6231174181734946,-0.6762188143739984,-0.30609597924773
1499368352649,0.6270237277790498,-0.6747539482719156,-0.3124437323567557
1499368352681,0.6162813763637747,-0.6854962996871898,-0.30267795834287003
1499368352713,0.6289768825818269,-0.6825665674830241,-0.3031662470435643
1499368352745,0.6216525520714118,-0.6796368352788584,-0.29291218432898436
1499368352776,0.6353246356908526,-0.673777370870527,-0.32758068207827895
1499368352808,0.6128633554589147,-0.6820782787823298,-0.29681849393453863
1499368352840,0.6323949034866869,-0.677195391775387,-0.2914473182269015
1499368352872,0.6280003051804384,-0.6815899900816356,-0.30951400015259
1499368352904,0.6323949034866869,-0.6869611657892727,-0.2880292973220415
1499368352935,0.6196993972686347,-0.6723125047684442,-0.29681849393453863
1499368352967,0.6299534599832155,-0.6830548561837184,-0.3065842679484243
1499368352999,0.6260471503776612,-0.6864728770885784,-0.30170138094148147
1499368353031,0.625558861676967,-0.6674296177615013,-0.3290455481803618
1499368353062,0.6226291294728004,-0.6879377431906617,-0.3178149080643933
1499368353093,0.625558861676967,-0.6854962996871898,-0.30609597924773
1499368353125,0.6216525520714118,-0.6757305256733042,-0.3090257114518957
1499368353157,0.6236057068741889,-0.6845197222858013,-0.320744640268559
1499368353188,0.616769665064469,-0.6825665674830241,-0.31146715495536714
1499368353220,0.6245822842755775,-0.6854962996871898,-0.2973067826352329
1499368353252,0.6270237277790498,-0.6869611657892727,-0.3041428244449529
1499368353284,0.6143282215609975,-0.6767071030746927,-0.3036545357442586
1499368353315,0.6275120164797441,-0.6762188143739984,-0.3285572594796675
1499368353347,0.6211642633707175,-0.688426031891356,-0.30463111314564717
1499368353379,0.6265354390783555,-0.6679179064621956,-0.33344014648661036
1499368353411,0.6240939955748832,-0.6879377431906617,-0.30804913405050716
1499368353443,0.6245822842755775,-0.6723125047684442,-0.30853742275120144
1499368353474,0.6201876859693289,-0.6801251239795527,-0.30560769054703574
1499368353506,0.6177462424658575,-0.6898908979934388,-0.3197680628671704
1499368353538,0.6289768825818269,-0.6767071030746927,-0.3290455481803618
1499368353570,0.6216525520714118,-0.6791485465781641,-0.33392843518730464
1499368353601,0.6275120164797441,-0.6830548561837184,-0.30951400015259
1499368353633,0.6153047989623861,-0.6815899900816356,-0.30804913405050716
1499368353665,0.6187228198672461,-0.6811017013809413,-0.32172121766994755
1499368353697,0.616769665064469,-0.6850080109864956,-0.313908598458839
1499368353729,0.6240939955748832,-0.6757305256733042,-0.3065842679484243
1499368353760,0.6284885938811327,-0.688426031891356,-0.3197680628671704
1499368353792,0.6226291294728004,-0.6747539482719156,-0.3314869916838332
1499368353824,0.6153047989623861,-0.6781719691767756,-0.3168383306630047
1499368353856,0.6094453345540547,-0.684031433585107,-0.3031662470435643
1499368353887,0.6216525520714118,-0.6757305256733042,-0.3192797741664761
1499368353919,0.6211642633707175,-0.6815899900816356,-0.317326619363699
1499368353951,0.6148165102616918,-0.6820782787823298,-0.3163500419623104
1499368353983,0.6187228198672461,-0.6723125047684442,-0.31097886625467286
1499368354015,0.6079804684519718,-0.6698710612649728,-0.3090257114518957
1499368354046,0.6236057068741889,-0.680613412680247,-0.3266041046768904
1499368354078,0.6250705729762727,-0.6815899900816356,-0.30463111314564717
1499368354110,0.6289768825818269,-0.6801251239795527,-0.3075608453498129
1499368354142,0.6143282215609975,-0.6820782787823298,-0.31830319676508756
1499368354173,0.6211642633707175,-0.6850080109864956,-0.3373464560921646
1499368354205,0.6196993972686347,-0.6693827725642785,-0.3295338368810561
1499368354237,0.6221408407721061,-0.6913557640955217,-0.30951400015259
1499368354269,0.6172579537651632,-0.6752422369726099,-0.3070725566491186
1499368354301,0.6211642633707175,-0.6869611657892727,-0.29681849393453863
1499368354332,0.6157930876630804,-0.6698710612649728,-0.320744640268559
1499368354363,0.6201876859693289,-0.6835431448844127,-0.31879148546578184
1499368354395,0.6236057068741889,-0.677195391775387,-0.3143968871595333
1499368354427,0.6226291294728004,-0.6791485465781641,-0.2977950713359272
1499368354458,0.6226291294728004,-0.6869611657892727,-0.30609597924773
1499368354490,0.6206759746700232,-0.6767071030746927,-0.2914473182269015
1499368354522,0.6187228198672461,-0.6811017013809413,-0.3231860837720304
1499368354554,0.6353246356908526,-0.688426031891356,-0.3290455481803618
1499368354585,0.6118867780575261,-0.6752422369726099,-0.31830319676508756
1499368354617,0.6172579537651632,-0.6898908979934388,-0.30804913405050716
1499368354649,0.6109102006561375,-0.6728007934691385,-0.3178149080643933
1499368354681,0.6231174181734946,-0.6942854962996874,-0.3143968871595333
1499368354713,0.6226291294728004,-0.6767071030746927,-0.3314869916838332
1499368354744,0.6162813763637747,-0.6825665674830241,-0.29584191653315006
1499368354776,0.6221408407721061,-0.6757305256733042,-0.33344014648661036
1499368354808,0.6216525520714118,-0.687449454489967,-0.3388113221942475
1499368354840,0.6104219119554433,-0.6786602578774699,-0.3178149080643933
1499368354871,0.6216525520714118,-0.6728007934691385,-0.32416266117341896
1499368354903,0.6260471503776612,-0.6825665674830241,-0.30853742275120144
1499368354935,0.609933623254749,-0.6801251239795527,-0.3143968871595333
1499368354967,0.616769665064469,-0.6747539482719156,-0.3065842679484243
1499368354999,0.6196993972686347,-0.6801251239795527,-0.32416266117341896
1499368355030,0.6094453345540547,-0.6864728770885784,-0.32172121766994755
1499368355062,0.6372777904936298,-0.6747539482719156,-0.31146715495536714
1499368355094,0.6040741588464176,-0.6762188143739984,-0.3178149080643933
1499368355126,0.609933623254749,-0.684031433585107,-0.3344167238879989
1499368355157,0.6289768825818269,-0.684031433585107,-0.3124437323567557
1499368355189,0.6104219119554433,-0.6879377431906617,-0.3148851758602276
1499368355221,0.6162813763637747,-0.6762188143739984,-0.3168383306630047
1499368355253,0.6182345311665518,-0.6786602578774699,-0.3319752803845275
1499368355285,0.603097581445029,-0.677195391775387,-0.30267795834287003
1499368355316,0.6289768825818269,-0.6850080109864956,-0.3168383306630047
1499368355348,0.6221408407721061,-0.6742656595712213,-0.3148851758602276
1499368355380,0.6211642633707175,-0.6913557640955217,-0.29340047302967864
1499368355412,0.616769665064469,-0.6869611657892727,-0.32465094987411325
1499368355443,0.6192111085679404,-0.6864728770885784,-0.3178149080643933
1499368355475,0.6148165102616918,-0.6869611657892727,-0.3168383306630047
1499368355507,0.606515602349889,-0.6796368352788584,-0.31586175326161614
1499368355539,0.6216525520714118,-0.6913557640955217,-0.32220950637064183
1499368355571,0.6162813763637747,-0.673777370870527,-0.3070725566491186
1499368355602,0.6221408407721061,-0.6811017013809413,-0.3090257114518957
1499368355633,0.6240939955748832,-0.6820782787823298,-0.2977950713359272
1499368355665,0.6245822842755775,-0.6776836804760813,-0.3143968871595333
1499368355697,0.6118867780575261,-0.6815899900816356,-0.3104905775539786
1499368355728,0.6162813763637747,-0.6898908979934388,-0.31293202105745044
1499368355760,0.6284885938811327,-0.6698710612649728,-0.30804913405050716
1499368355792,0.6109102006561375,-0.6767071030746927,-0.3178149080643933
1499368355824,0.6187228198672461,-0.6898908979934388,-0.3119554436560614
1499368355855,0.6216525520714118,-0.6825665674830241,-0.3226977950713361
1499368355887,0.6211642633707175,-0.6698710612649728,-0.3041428244449529
1499368355919,0.6314183260852984,-0.6845197222858013,-0.3192797741664761
1499368355951,0.6172579537651632,-0.680613412680247,-0.28168154421301583
1499368355982,0.6221408407721061,-0.688426031891356,-0.2885175860227358
1499368356014,0.6162813763637747,-0.6698710612649728,-0.3124437323567557
1499368356046,0.6192111085679404,-0.6713359273670556,-0.3192797741664761
1499368356078,0.6211642633707175,-0.6894026092927446,-0.29584191653315006
1499368356110,0.6148165102616918,-0.6776836804760813,-0.29633020523384435
1499368356141,0.6206759746700232,-0.6864728770885784,-0.3178149080643933
1499368356173,0.6265354390783555,-0.6835431448844127,-0.2938887617303729
1499368356205,0.6231174181734946,-0.6835431448844127,-0.32465094987411325
1499368356237,0.6284885938811327,-0.6859845883878841,-0.31879148546578184
1499368356268,0.6216525520714118,-0.6869611657892727,-0.3163500419623104
1499368356300,0.6240939955748832,-0.6747539482719156,-0.317326619363699
1499368356332,0.6284885938811327,-0.677195391775387,-0.3143968871595333
1499368356364,0.6275120164797441,-0.6698710612649728,-0.30853742275120144
1499368356396,0.6270237277790498,-0.6776836804760813,-0.30951400015259
1499368356427,0.6206759746700232,-0.688426031891356,-0.3041428244449529
1499368356459,0.6153047989623861,-0.6762188143739984,-0.3075608453498129
1499368356491,0.6280003051804384,-0.6723125047684442,-0.30853742275120144
1499368356523,0.6226291294728004,-0.6835431448844127,-0.3231860837720304
1499368356554,0.6216525520714118,-0.6723125047684442,-0.29681849393453863
1499368356586,0.6250705729762727,-0.6791485465781641,-0.313908598458839
1499368356618,0.6187228198672461,-0.6796368352788584,-0.3192797741664761
1499368356650,0.6182345311665518,-0.6859845883878841,-0.3192797741664761
1499368356682,0.6265354390783555,-0.6801251239795527,-0.3031662470435643
1499368356713,0.6260471503776612,-0.6869611657892727,-0.29877164873731576
1499368356745,0.6206759746700232,-0.6791485465781641,-0.3231860837720304
1499368356777,0.6309300373846041,-0.6723125047684442,-0.32465094987411325
1499368356809,0.6323949034866869,-0.680613412680247,-0.31293202105745044
1499368356840,0.6309300373846041,-0.6796368352788584,-0.3226977950713361
1499368356872,0.6299534599832155,-0.6830548561837184,-0.30853742275120144
1499368356903,0.6221408407721061,-0.6742656595712213,-0.29633020523384435
1499368356935,0.6231174181734946,-0.6825665674830241,-0.3178149080643933
1499368356966,0.6109102006561375,-0.6801251239795527,-0.30951400015259
1499368356998,0.6157930876630804,-0.670359349965667,-0.3143968871595333
1499368357030,0.6348363469901583,-0.6713359273670556,-0.32416266117341896
1499368357062,0.6240939955748832,-0.6830548561837184,-0.30560769054703574
1499368357094,0.6358129243915469,-0.6659647516594185,-0.32416266117341896
1499368357125,0.6226291294728004,-0.6913557640955217,-0.29633020523384435
1499368357157,0.6485084306095983,-0.6659647516594185,-0.3197680628671704
1499368357189,0.6192111085679404,-0.6674296177615013,-0.30951400015259
1499368357221,0.6138399328603033,-0.6859845883878841,-0.31830319676508756
1499368357252,0.6250705729762727,-0.6566872663462271,-0.3163500419623104
1499368357284,0.6323949034866869,-0.6561989776455328,-0.3163500419623104
1499368357316,0.6216525520714118,-0.6728007934691385,-0.3124437323567557
1499368357348,0.6284885938811327,-0.6713359273670556,-0.33344014648661036
1499368357380,0.6211642633707175,-0.6825665674830241,-0.31586175326161614
1499368357411,0.6338597695887698,-0.6698710612649728,-0.3236743724727247
1499368357443,0.6216525520714118,-0.666941329060807,-0.29681849393453863
1499368357475,0.6275120164797441,-0.6786602578774699,-0.3178149080643933
1499368357507,0.6309300373846041,-0.6732890821698327,-0.3261158159761961
1499368357538,0.6211642633707175,-0.6693827725642785,-0.3070725566491186
1499368357570,0.6314183260852984,-0.6767071030746927,-0.33392843518730464
1499368357602,0.6333714808880755,-0.6644998855573356,-0.3349050125886932
1499368357634,0.6299534599832155,-0.6850080109864956,-0.3290455481803618
1499368357665,0.6216525520714118,-0.6742656595712213,-0.30804913405050716
1499368357697,0.6275120164797441,-0.6718242160677499,-0.3119554436560614
1499368357729,0.609933623254749,-0.6542458228427557,-0.3226977950713361
1499368357761,0.6382543678950183,-0.6718242160677499,-0.33099870298313894
1499368357793,0.6372777904936298,-0.670359349965667,-0.3192797741664761
1499368357824,0.6353246356908526,-0.6762188143739984,-0.29974822613870433
1499368357856,0.6284885938811327,-0.6762188143739984,-0.33099870298313894
1499368357888,0.6231174181734946,-0.6728007934691385,-0.30170138094148147
1499368357920,0.6270237277790498,-0.6601052872510871,-0.32465094987411325
1499368357951,0.6323949034866869,-0.6718242160677499,-0.3197680628671704
1499368357983,0.6275120164797441,-0.6698710612649728,-0.31293202105745044
1499368358015,0.6319066147859926,-0.6610818646524756,-0.3256275272755018
1499368358047,0.6221408407721061,-0.6811017013809413,-0.3124437323567557
1499368358079,0.6343480582894641,-0.6596169985503928,-0.3226977950713361
1499368358110,0.6372777904936298,-0.673777370870527,-0.31146715495536714
1499368358142,0.6216525520714118,-0.6723125047684442,-0.3119554436560614
1499368358173,0.6353246356908526,-0.6674296177615013,-0.3256275272755018
1499368358205,0.6284885938811327,-0.6776836804760813,-0.30170138094148147
1499368358237,0.6299534599832155,-0.6728007934691385,-0.30463111314564717
1499368358268,0.6280003051804384,-0.6825665674830241,-0.30609597924773
1499368358300,0.6201876859693289,-0.6767071030746927,-0.31097886625467286
1499368358332,0.6294651712825212,-0.6762188143739984,-0.313908598458839
1499368358364,0.6358129243915469,-0.6801251239795527,-0.30463111314564717
1499368358395,0.6387426565957126,-0.6708476386663613,-0.3178149080643933
1499368358427,0.6206759746700232,-0.6767071030746927,-0.31097886625467286
1499368358459,0.6289768825818269,-0.6811017013809413,-0.3192797741664761
1499368358491,0.6265354390783555,-0.6820782787823298,-0.3075608453498129
1499368358522,0.6211642633707175,-0.673777370870527,-0.320744640268559
1499368358554,0.6343480582894641,-0.6723125047684442,-0.29974822613870433
1499368358586,0.6216525520714118,-0.670359349965667,-0.31293202105745044
1499368358618,0.6309300373846041,-0.6723125047684442,-0.3143968871595333
1499368358650,0.6416723887998783,-0.6684061951628899,-0.3090257114518957
1499368358681,0.6289768825818269,-0.673777370870527,-0.3163500419623104
1499368358713,0.6270237277790498,-0.6708476386663613,-0.32806897077897323
1499368358745,0.6250705729762727,-0.6752422369726099,-0.31097886625467286
1499368358777,0.6275120164797441,-0.6776836804760813,-0.320744640268559
1499368358808,0.637766079194324,-0.6767071030746927,-0.3119554436560614
1499368358840,0.6221408407721061,-0.6845197222858013,-0.3178149080643933
1499368358872,0.6226291294728004,-0.6762188143739984,-0.3090257114518957
1499368358904,0.6304417486839098,-0.6728007934691385,-0.29974822613870433
1499368358935,0.6148165102616918,-0.6708476386663613,-0.30463111314564717
1499368358967,0.6314183260852984,-0.677195391775387,-0.29681849393453863
1499368358999,0.6397192339971012,-0.6688944838635842,-0.3197680628671704
1499368359031,0.6231174181734946,-0.6801251239795527,-0.3143968871595333
1499368359063,0.6309300373846041,-0.688426031891356,-0.2973067826352329
1499368359094,0.6280003051804384,-0.677195391775387,-0.3163500419623104
1499368359126,0.6275120164797441,-0.6820782787823298,-0.29974822613870433
1499368359158,0.6275120164797441,-0.6601052872510871,-0.29633020523384435
1499368359190,0.6270237277790498,-0.6781719691767756,-0.30560769054703574
1499368359221,0.6299534599832155,-0.6776836804760813,-0.3041428244449529
1499368359253,0.6221408407721061,-0.6796368352788584,-0.3012130922407872
1499368359285,0.6328831921873812,-0.6830548561837184,-0.30267795834287003
1499368359317,0.6211642633707175,-0.6786602578774699,-0.29925993743801005
1499368359349,0.6216525520714118,-0.6776836804760813,-0.2909590295262072
1499368359380,0.6260471503776612,-0.6732890821698327,-0.2919356069275958
1499368359412,0.6333714808880755,-0.6752422369726099,-0.3070725566491186
1499368359443,0.6489967193102926,-0.6879377431906617,-0.2977950713359272
1499368359475,0.6372777904936298,-0.6752422369726099,-0.3134203097581447
1499368359507,0.6353246356908526,-0.6752422369726099,-0.3148851758602276
1499368359538,0.6299534599832155,-0.6869611657892727,-0.30170138094148147
1499368359570,0.6299534599832155,-0.6684061951628899,-0.3090257114518957
1499368359602,0.6319066147859926,-0.6801251239795527,-0.31097886625467286
1499368359634,0.6226291294728004,-0.6869611657892727,-0.2973067826352329
1499368359665,0.6460669871061269,-0.6723125047684442,-0.32123292896925326
1499368359697,0.6231174181734946,-0.680613412680247,-0.30170138094148147
1499368359729,0.6358129243915469,-0.6688944838635842,-0.3012130922407872
1499368359761,0.6265354390783555,-0.687449454489967,-0.29925993743801005
1499368359792,0.6328831921873812,-0.6796368352788584,-0.3168383306630047
1499368359824,0.6270237277790498,-0.670359349965667,-0.3090257114518957
1499368359856,0.6333714808880755,-0.6786602578774699,-0.2973067826352329
1499368359888,0.6196993972686347,-0.6713359273670556,-0.30609597924773
1499368359920,0.6275120164797441,-0.680613412680247,-0.31830319676508756
1499368359951,0.6284885938811327,-0.6708476386663613,-0.3124437323567557
1499368359983,0.625558861676967,-0.6752422369726099,-0.30804913405050716
1499368360015,0.6328831921873812,-0.6815899900816356,-0.3012130922407872
1499368360047,0.6260471503776612,-0.6708476386663613,-0.2943770504310672
1499368360078,0.6280003051804384,-0.6791485465781641,-0.3065842679484243
1499368360110,0.6240939955748832,-0.6747539482719156,-0.3119554436560614
1499368360142,0.6343480582894641,-0.6835431448844127,-0.2919356069275958
1499368360174,0.625558861676967,-0.6679179064621956,-0.2973067826352329
1499368360206,0.6323949034866869,-0.6830548561837184,-0.28656443121995867
1499368360237,0.6358129243915469,-0.6742656595712213,-0.30463111314564717
1499368360269,0.616769665064469,-0.6859845883878841,-0.2982833600366215
1499368360301,0.6260471503776612,-0.6786602578774699,-0.2924238956282901
1499368360333,0.6270237277790498,-0.6728007934691385,-0.3178149080643933
1499368360364,0.637766079194324,-0.684031433585107,-0.2948653391317615
1499368360396,0.641184100099184,-0.6728007934691385,-0.31146715495536714
1499368360428,0.6221408407721061,-0.680613412680247,-0.3031662470435643
1499368360460,0.6304417486839098,-0.6723125047684442,-0.31146715495536714
1499368360491,0.6240939955748832,-0.6791485465781641,-0.29681849393453863
1499368360523,0.6270237277790498,-0.6684061951628899,-0.29047074082551294
1499368360555,0.6333714808880755,-0.6820782787823298,-0.30951400015259
1499368360587,0.6299534599832155,-0.6762188143739984,-0.2909590295262072
1499368360619,0.6372777904936298,-0.6801251239795527,-0.2938887617303729
1499368360650,0.6265354390783555,-0.6791485465781641,-0.3012130922407872
1499368360682,0.6372777904936298,-0.6820782787823298,-0.32709239337758467
1499368360713,0.6143282215609975,-0.6679179064621956,-0.2943770504310672
1499368360745,0.6372777904936298,-0.6762188143739984,-0.30853742275120144
1499368360777,0.6441138323033497,-0.6728007934691385,-0.3124437323567557
1499368360808,0.6216525520714118,-0.6820782787823298,-0.30853742275120144
1499368360840,0.6314183260852984,-0.6757305256733042,-0.32123292896925326
1499368360872,0.6236057068741889,-0.6786602578774699,-0.3124437323567557
1499368360904,0.637766079194324,-0.6801251239795527,-0.3148851758602276
1499368360935,0.6304417486839098,-0.6752422369726099,-0.30218966964217575
1499368360967,0.6299534599832155,-0.6791485465781641,-0.3104905775539786
1499368360999,0.6240939955748832,-0.684031433585107,-0.29340047302967864
1499368361031,0.6367895017929355,-0.6723125047684442,-0.32416266117341896
1499368361063,0.6372777904936298,-0.6767071030746927,-0.30804913405050716
1499368361094,0.6226291294728004,-0.6757305256733042,-0.30560769054703574
1499368361126,0.6382543678950183,-0.677195391775387,-0.30853742275120144
1499368361158,0.6196993972686347,-0.6801251239795527,-0.2982833600366215
1499368361190,0.6299534599832155,-0.6776836804760813,-0.2982833600366215
1499368361221,0.6216525520714118,-0.6845197222858013,-0.313908598458839
1499368361253,0.6182345311665518,-0.6747539482719156,-0.2909590295262072
1499368361285,0.6333714808880755,-0.6781719691767756,-0.32220950637064183
1499368361317,0.6118867780575261,-0.6747539482719156,-0.313908598458839
1499368361348,0.637766079194324,-0.6889143205920503,-0.29925993743801005
1499368361380,0.6275120164797441,-0.673777370870527,-0.3134203097581447
1499368361412,0.6211642633707175,-0.6776836804760813,-0.2860761425192644
1499368361444,0.6240939955748832,-0.6801251239795527,-0.3197680628671704
1499368361476,0.6299534599832155,-0.6791485465781641,-0.3261158159761961
1499368361507,0.6226291294728004,-0.6830548561837184,-0.31146715495536714
1499368361539,0.6245822842755775,-0.6776836804760813,-0.29925993743801005
1499368361571,0.6284885938811327,-0.6767071030746927,-0.32123292896925326
1499368361603,0.6245822842755775,-0.6801251239795527,-0.31146715495536714
1499368361634,0.6216525520714118,-0.6786602578774699,-0.3124437323567557
1499368361666,0.6221408407721061,-0.6752422369726099,-0.29974822613870433
1499368361698,0.6294651712825212,-0.6757305256733042,-0.3075608453498129
1499368361730,0.6240939955748832,-0.6747539482719156,-0.3226977950713361
1499368361761,0.6177462424658575,-0.6879377431906617,-0.3124437323567557
1499368361793,0.6289768825818269,-0.6708476386663613,-0.3285572594796675
1499368361825,0.6123750667582204,-0.6762188143739984,-0.30170138094148147
1499368361857,0.6250705729762727,-0.6825665674830241,-0.313908598458839
1499368361889,0.6240939955748832,-0.6791485465781641,-0.32172121766994755
1499368361920,0.6138399328603033,-0.6811017013809413,-0.2938887617303729
1499368361952,0.6294651712825212,-0.6742656595712213,-0.29877164873731576
1499368361983,0.6402075226977955,-0.6767071030746927,-0.3119554436560614
1499368362015,0.6226291294728004,-0.6933089188982988,-0.3036545357442586
1499368362047,0.6221408407721061,-0.6688944838635842,-0.313908598458839
1499368362078,0.6187228198672461,-0.6786602578774699,-0.3031662470435643
1499368362110,0.6216525520714118,-0.6688944838635842,-0.3090257114518957
1499368362142,0.6280003051804384,-0.6664530403601128,-0.3148851758602276
1499368362174,0.6192111085679404,-0.6752422369726099,-0.320744640268559
1499368362205,0.6280003051804384,-0.6630350194552528,-0.3226977950713361
1499368362237,0.6323949034866869,-0.6820782787823298,-0.33099870298313894
1499368362269,0.6236057068741889,-0.6664530403601128,-0.3231860837720304
1499368362301,0.6367895017929355,-0.6630350194552528,-0.32416266117341896
1499368362333,0.6177462424658575,-0.6815899900816356,-0.3036545357442586
1499368362364,0.6289768825818269,-0.6664530403601128,-0.31586175326161614
1499368362396,0.6294651712825212,-0.6796368352788584,-0.31586175326161614
1499368362428,0.6260471503776612,-0.6767071030746927,-0.3236743724727247
1499368362460,0.6304417486839098,-0.6664530403601128,-0.3124437323567557
1499368362491,0.6250705729762727,-0.6728007934691385,-0.30609597924773
1499368362523,0.6289768825818269,-0.6757305256733042,-0.3178149080643933
1499368362555,0.6221408407721061,-0.6752422369726099,-0.3134203097581447
1499368362587,0.6436255436026554,-0.6757305256733042,-0.30853742275120144
1499368362618,0.6280003051804384,-0.6728007934691385,-0.32220950637064183
1499368362650,0.6299534599832155,-0.6698710612649728,-0.320744640268559
1499368362682,0.6162813763637747,-0.6781719691767756,-0.3104905775539786
1499368362714,0.6333714808880755,-0.6762188143739984,-0.3344167238879989
1499368362746,0.6192111085679404,-0.6796368352788584,-0.32416266117341896
1499368362777,0.6182345311665518,-0.6723125047684442,-0.3163500419623104
1499368362809,0.6319066147859926,-0.670359349965667,-0.3075608453498129
1499368362841,0.6221408407721061,-0.673777370870527,-0.3031662470435643
1499368362873,0.625558861676967,-0.6835431448844127,-0.3168383306630047
1499368362904,0.6226291294728004,-0.6820782787823298,-0.31586175326161614
1499368362936,0.6240939955748832,-0.6811017013809413,-0.3104905775539786
1499368362968,0.6402075226977955,-0.6732890821698327,-0.3070725566491186
1499368363000,0.6216525520714118,-0.6791485465781641,-0.3124437323567557
1499368363031,0.6231174181734946,-0.6845197222858013,-0.3031662470435643
1499368363063,0.6382543678950183,-0.6742656595712213,-0.320744640268559
1499368363095,0.6245822842755775,-0.6762188143739984,-0.2880292973220415
1499368363127,0.6157930876630804,-0.6757305256733042,-0.3036545357442586
1499368363158,0.6236057068741889,-0.6728007934691385,-0.3148851758602276
1499368363190,0.6206759746700232,-0.6649881742580299,-0.31146715495536714
1499368363222,0.6299534599832155,-0.688426031891356,-0.2977950713359272
1499368363253,0.6363012130922412,-0.6674296177615013,-0.3163500419623104
1499368363285,0.6299534599832155,-0.6698710612649728,-0.317326619363699
1499368363317,0.6289768825818269,-0.6845197222858013,-0.31293202105745044
1499368363348,0.6240939955748832,-0.6693827725642785,-0.31586175326161614
1499368363380,0.6358129243915469,-0.6811017013809413,-0.3168383306630047
1499368363412,0.6275120164797441,-0.6664530403601128,-0.32416266117341896
1499368363444,0.6426489662012669,-0.6791485465781641,-0.30218966964217575
1499368363475,0.6304417486839098,-0.6835431448844127,-0.30609597924773
1499368363507,0.6314183260852984,-0.6684061951628899,-0.3104905775539786
1499368363539,0.6250705729762727,-0.6845197222858013,-0.3036545357442586
1499368363571,0.6294651712825212,-0.6684061951628899,-0.32123292896925326
1499368363603,0.6328831921873812,-0.6752422369726099,-0.30463111314564717
1499368363634,0.6382543678950183,-0.6801251239795527,-0.3231860837720304
1499368363666,0.6309300373846041,-0.677195391775387,-0.3070725566491186
1499368363698,0.6284885938811327,-0.6864728770885784,-0.32220950637064183
1499368363730,0.6343480582894641,-0.6723125047684442,-0.2973067826352329
1499368363761,0.6328831921873812,-0.6747539482719156,-0.31097886625467286
1499368363793,0.6216525520714118,-0.6713359273670556,-0.3065842679484243
1499368363825,0.6372777904936298,-0.6776836804760813,-0.30951400015259
1499368363857,0.6353246356908526,-0.6859845883878841,-0.2919356069275958
1499368363888,0.6265354390783555,-0.680613412680247,-0.3031662470435643
1499368363920,0.6319066147859926,-0.6688944838635842,-0.30170138094148147
1499368363952,0.6265354390783555,-0.6649881742580299,-0.3065842679484243
1499368363984,0.6280003051804384,-0.6791485465781641,-0.3090257114518957
1499368364016,0.6314183260852984,-0.666941329060807,-0.3031662470435643
1499368364047,0.6280003051804384,-0.6654764629587242,-0.30804913405050716
1499368364079,0.6280003051804384,-0.6801251239795527,-0.30609597924773
1499368364111,0.637766079194324,-0.6679179064621956,-0.3090257114518957
1499368364143,0.6358129243915469,-0.6732890821698327,-0.32123292896925326
1499368364174,0.6348363469901583,-0.6811017013809413,-0.3041428244449529
1499368364206,0.6402075226977955,-0.6776836804760813,-0.3090257114518957
1499368364238,0.6333714808880755,-0.6767071030746927,-0.30463111314564717
1499368364270,0.6348363469901583,-0.6732890821698327,-0.30804913405050716
1499368364301,0.6309300373846041,-0.6664530403601128,-0.30853742275120144
1499368364333,0.6236057068741889,-0.6762188143739984,-0.313908598458839
1499368364365,0.6319066147859926,-0.6791485465781641,-0.3163500419623104
1499368364397,0.6138399328603033,-0.6732890821698327,-0.3065842679484243
1499368364428,0.6397192339971012,-0.6791485465781641,-0.3119554436560614
1499368364460,0.6348363469901583,-0.6693827725642785,-0.30951400015259
1499368364492,0.6280003051804384,-0.677195391775387,-0.3148851758602276
1499368364523,0.6265354390783555,-0.6693827725642785,-0.3124437323567557
1499368364555,0.6309300373846041,-0.6762188143739984,-0.313908598458839
1499368364587,0.6196993972686347,-0.6718242160677499,-0.30951400015259
1499368364618,0.6250705729762727,-0.6835431448844127,-0.30218966964217575
1499368364650,0.6363012130922412,-0.6835431448844127,-0.3119554436560614
1499368364682,0.6323949034866869,-0.670359349965667,-0.2977950713359272
1499368364714,0.6353246356908526,-0.6757305256733042,-0.31146715495536714
1499368364745,0.6338597695887698,-0.6762188143739984,-0.2973067826352329
1499368364777,0.6397192339971012,-0.6684061951628899,-0.30218966964217575
1499368364809,0.6245822842755775,-0.6708476386663613,-0.3075608453498129
1499368364841,0.6343480582894641,-0.6732890821698327,-0.3012130922407872
1499368364873,0.6250705729762727,-0.670359349965667,-0.29681849393453863
1499368364904,0.6265354390783555,-0.6835431448844127,-0.30804913405050716
1499368364936,0.6245822842755775,-0.6752422369726099,-0.3036545357442586
1499368364968,0.6245822842755775,-0.6732890821698327,-0.29925993743801005
1499368365000,0.6494850080109869,-0.6742656595712213,-0.3417410543984132
1499368365031,0.609933623254749,-0.6791485465781641,-0.30609597924773
1499368365063,0.6353246356908526,-0.6742656595712213,-0.3075608453498129
1499368365095,0.6299534599832155,-0.6752422369726099,-0.30951400015259
1499368365127,0.6162813763637747,-0.6801251239795527,-0.31293202105745044
1499368365158,0.6353246356908526,-0.6742656595712213,-0.32172121766994755
1499368365190,0.6236057068741889,-0.684031433585107,-0.30853742275120144
1499368365222,0.6367895017929355,-0.680613412680247,-0.30463111314564717
1499368365254,0.6216525520714118,-0.6728007934691385,-0.3266041046768904
1499368365285,0.6245822842755775,-0.6718242160677499,-0.3148851758602276
1499368365317,0.6226291294728004,-0.6728007934691385,-0.3012130922407872
1499368365349,0.6289768825818269,-0.6811017013809413,-0.3012130922407872
1499368365381,0.6201876859693289,-0.6796368352788584,-0.2938887617303729
1499368365413,0.6333714808880755,-0.6786602578774699,-0.3119554436560614
1499368365444,0.6240939955748832,-0.6762188143739984,-0.2977950713359272
1499368365476,0.6367895017929355,-0.6728007934691385,-0.317326619363699
1499368365508,0.6216525520714118,-0.6742656595712213,-0.31830319676508756
1499368365540,0.6216525520714118,-0.6776836804760813,-0.3075608453498129
1499368365571,0.6236057068741889,-0.6811017013809413,-0.31586175326161614
1499368365603,0.6245822842755775,-0.6767071030746927,-0.31097886625467286
1499368365635,0.6206759746700232,-0.6635233081559471,-0.3041428244449529
1499368365667,0.6323949034866869,-0.6864728770885784,-0.32806897077897323
1499368365698,0.6250705729762727,-0.6674296177615013,-0.30853742275120144
1499368365730,0.6138399328603033,-0.6879377431906617,-0.3266041046768904
1499368365762,0.6284885938811327,-0.684031433585107,-0.3285572594796675
1499368365793,0.6201876859693289,-0.6786602578774699,-0.31146715495536714
1499368365825,0.613351644159609,-0.6781719691767756,-0.3178149080643933
1499368365857,0.6284885938811327,-0.677195391775387,-0.3148851758602276
1499368365888,0.6231174181734946,-0.6811017013809413,-0.3192797741664761
1499368365920,0.6182345311665518,-0.6845197222858013,-0.30951400015259
1499368365952,0.6372777904936298,-0.6654764629587242,-0.32758068207827895
1499368365984,0.6187228198672461,-0.680613412680247,-0.3192797741664761
1499368366015,0.6245822842755775,-0.680613412680247,-0.32123292896925326
1499368366047,0.6240939955748832,-0.673777370870527,-0.3124437323567557
1499368366079,0.6226291294728004,-0.6781719691767756,-0.29681849393453863
1499368366111,0.6260471503776612,-0.6674296177615013,-0.3168383306630047
1499368366143,0.616769665064469,-0.6747539482719156,-0.29584191653315006
1499368366174,0.6309300373846041,-0.6742656595712213,-0.3256275272755018
1499368366206,0.609933623254749,-0.6815899900816356,-0.320744640268559
1499368366238,0.6221408407721061,-0.6718242160677499,-0.32758068207827895
1499368366270,0.616769665064469,-0.6776836804760813,-0.3148851758602276
1499368366301,0.6260471503776612,-0.6859845883878841,-0.3124437323567557
1499368366333,0.6245822842755775,-0.6635233081559471,-0.3090257114518957
1499368366365,0.6192111085679404,-0.6776836804760813,-0.2938887617303729
1499368366397,0.6236057068741889,-0.691844052796216,-0.32758068207827895
1499368366428,0.6221408407721061,-0.6908674753948274,-0.313908598458839
1499368366460,0.6196993972686347,-0.6776836804760813,-0.3119554436560614
1499368366492,0.6201876859693289,-0.673777370870527,-0.30804913405050716
1499368366524,0.6187228198672461,-0.6796368352788584,-0.31586175326161614
1499368366555,0.6216525520714118,-0.6684061951628899,-0.32465094987411325
1499368366587,0.625558861676967,-0.6801251239795527,-0.3256275272755018
1499368366619,0.6294651712825212,-0.6752422369726099,-0.3119554436560614
1499368366651,0.6216525520714118,-0.6791485465781641,-0.31293202105745044
1499368366683,0.6201876859693289,-0.6757305256733042,-0.30951400015259
1499368366714,0.6231174181734946,-0.677195391775387,-0.3041428244449529
1499368366746,0.6216525520714118,-0.6708476386663613,-0.32172121766994755
1499368366778,0.6157930876630804,-0.6742656595712213,-0.320744640268559
1499368366810,0.6304417486839098,-0.6830548561837184,-0.3041428244449529
