Timestamp (ms),Accel X (g),Accel Y (g),Accel Z (g)
1499368322673,0.10064850843060924,0.5923552300297548,-0.8939955748836499
1499368322705,0.1167620355535206,0.6050507362478061,-0.7499504081788357
1499368322737,0.13336385137712714,0.6592507820248725,-0.6947737850003817
1499368322769,0.16021972991531275,0.6763408865491725,-0.7001449607080188
1499368322801,0.18316929884794408,0.7046616311894409,-0.6820782787823298
1499368322833,0.18463416495002694,0.7056382085908295,-0.6278782330052644
1499368322865,0.18365758754863837,0.7256580453192951,-0.6156710154879073
1499368322897,0.1914702067597469,0.7354238193331808,-0.6102998397802701
1499368322929,0.1885404745555812,0.7359121080338751,-0.6205539024948501
1499368322961,0.18707560845349835,0.7442130159456779,-0.6405737392233157
1499368322993,0.1890287632562755,0.7432364385442893,-0.6371557183184557
1499368323025,0.18512245365072122,0.756420233463035,-0.6366674296177615
1499368323057,0.18414587624933265,0.7544670786602579,-0.6146944380865187
1499368323089,0.19391165026321833,0.7603265430685893,-0.618600747692073
1499368323121,0.19342336156252404,0.7549553673609521,-0.6039520866712444
1499368323153,0.19537651636530118,0.7549553673609521,-0.6283665217059586
1499368323185,0.1919584954604412,0.7573968108644236,-0.6044403753719387
1499368323217,0.19928282597085545,0.7505607690547036,-0.6078583962767987
1499368323249,0.20807202258335256,0.7515373464560922,-0.6322728313115129
1499368323281,0.20221255817502115,0.7490959029526207,-0.6190890363927672
1499368323313,0.20514229037918685,0.7510490577553979,-0.6244602121004044
1499368323345,0.1978179598687726,0.7539787899595636,-0.615182726787213
1499368323377,0.2066071564812697,0.7525139238574807,-0.63422598611429
1499368323409,0.20758373388265827,0.7525139238574807,-0.6244602121004044
1499368323441,0.20221255817502115,0.7569085221637293,-0.6234836346990158
1499368323473,0.20611886778057542,0.7505607690547036,-0.622018768596933
1499368323505,0.2095368886854354,0.756420233463035,-0.6102998397802701
1499368323537,0.20514229037918685,0.7544670786602579,-0.5956511787594416
1499368323569,0.21149004348821254,0.7515373464560922,-0.5951628900587473
1499368323601,0.2100251773861297,0.753002212558175,-0.6078583962767987
1499368323633,0.20514229037918685,0.7554436560616464,-0.6190890363927672
1499368323665,0.21197833218890683,0.7481193255512322,-0.611764705882353
1499368323697,0.20318913557640972,0.7378652628366522,-0.6063935301747159
1499368323729,0.21783779659723823,0.7505607690547036,-0.6176241702906844
1499368323761,0.21100175478751826,0.7544670786602579,-0.6210421911955444
1499368323793,0.20465400167849257,0.7407949950408179,-0.6332494087129015
1499368323825,0.2153963530937668,0.7466544594491493,-0.608346684977493
1499368323857,0.2129549095902954,0.7500724803540093,-0.6234836346990158
1499368323888,0.20856031128404684,0.7544670786602579,-0.6127412832837416
1499368323920,0.2129549095902954,0.7520256351567864,-0.6225070572976272
1499368323948,0.20856031128404684,0.753002212558175,-0.6317845426108186
1499368323980,0.21051346608682397,0.749584191653315,-0.6259250782024872
1499368324012,0.21197833218890683,0.7378652628366522,-0.6195773250934615
1499368324044,0.21344319829098968,0.7515373464560922,-0.6288548104066529
1499368324076,0.21344319829098968,0.7476310368505379,-0.64106202792401
1499368324108,0.21393148699168396,0.7515373464560922,-0.6225070572976272
1499368324140,0.21393148699168396,0.7447013046463722,-0.6210421911955444
1499368324172,0.2188143739986268,0.7500724803540093,-0.6259250782024872
1499368324204,0.2153963530937668,0.7559319447623407,-0.6107881284809644
1499368324236,0.21197833218890683,0.7486076142519265,-0.6264133669031815
1499368324268,0.20123598077363258,0.7525139238574807,-0.6161593041886015
1499368324300,0.21441977569237824,0.756420233463035,-0.6195773250934615
1499368324332,0.21344319829098968,0.753002212558175,-0.6405737392233157
1499368324364,0.21344319829098968,0.7388418402380408,-0.618600747692073
1499368324396,0.2129549095902954,0.749584191653315,-0.6312962539101243
1499368324428,0.21490806439307253,0.7447013046463722,-0.6303196765087358
1499368324459,0.22369726100556964,0.7486076142519265,-0.6200656137941558
1499368324491,0.21734950789654395,0.7388418402380408,-0.6234836346990158
1499368324523,0.21637293049515538,0.742748149843595,-0.6269016556038758
1499368324555,0.20856031128404684,0.7407949950408179,-0.6054169527733273
1499368324587,0.2095368886854354,0.7466544594491493,-0.63080796520943
1499368324619,0.2188143739986268,0.7417715724422065,-0.622018768596933
1499368324651,0.2153963530937668,0.7422598611429008,-0.6312962539101243
1499368324683,0.207095445181964,0.749584191653315,-0.6234836346990158
1499368324715,0.2124666208896011,0.7432364385442893,-0.6361791409170672
1499368324747,0.22662699320973534,0.7422598611429008,-0.6312962539101243
1499368324779,0.21051346608682397,0.7398184176394293,-0.6229953459983215
1499368324811,0.2100251773861297,0.7437247272449836,-0.6283665217059586
1499368324843,0.22320897230487535,0.7466544594491493,-0.6293430991073472
1499368324875,0.2153963530937668,0.7324940871290151,-0.6166475928892958
1499368324907,0.21149004348821254,0.7505607690547036,-0.6190890363927672
1499368324939,0.21393148699168396,0.7393301289387351,-0.6283665217059586
1499368324971,0.2153963530937668,0.7456778820477608,-0.6249485008010986
1499368325003,0.2158846417944611,0.7471427481498436,-0.6347142748149843
1499368325035,0.21051346608682397,0.7515373464560922,-0.6181124589913787
1499368325067,0.21100175478751826,0.7471427481498436,-0.6259250782024872
1499368325099,0.21393148699168396,0.7447013046463722,-0.6225070572976272
1499368325131,0.21197833218890683,0.7432364385442893,-0.6142061493858244
1499368325163,0.21344319829098968,0.7466544594491493,-0.6244602121004044
1499368325195,0.2129549095902954,0.742748149843595,-0.6264133669031815
1499368325223,0.21441977569237824,0.7403067063401236,-0.6181124589913787
1499368325255,0.21393148699168396,0.7417715724422065,-0.6068818188754102
1499368325287,0.2095368886854354,0.7490959029526207,-0.6312962539101243
1499368325319,0.20416571297779829,0.7403067063401236,-0.6288548104066529
1499368325351,0.2153963530937668,0.7481193255512322,-0.6137178606851301
1499368325383,0.21393148699168396,0.749584191653315,-0.6190890363927672
1499368325415,0.2095368886854354,0.7481193255512322,-0.6190890363927672
1499368325446,0.20807202258335256,0.7403067063401236,-0.6332494087129015
1499368325478,0.2095368886854354,0.7437247272449836,-0.6161593041886015
1499368325510,0.21393148699168396,0.7476310368505379,-0.6249485008010986
1499368325542,0.21734950789654395,0.7505607690547036,-0.622018768596933
1499368325574,0.21344319829098968,0.7442130159456779,-0.6166475928892958
1499368325606,0.2153963530937668,0.7393301289387351,-0.6347142748149843
1499368325638,0.2153963530937668,0.7412832837415122,-0.6278782330052644
1499368325670,0.21344319829098968,0.7437247272449836,-0.6229953459983215
1499368325702,0.21344319829098968,0.7442130159456779,-0.6391088731212329
1499368325734,0.2153963530937668,0.7500724803540093,-0.6249485008010986
1499368325766,0.21734950789654395,0.7393301289387351,-0.6239719233997101
1499368325798,0.21197833218890683,0.753002212558175,-0.6234836346990158
1499368325830,0.21149004348821254,0.7451895933470665,-0.6273899443045701
1499368325862,0.21100175478751826,0.7451895933470665,-0.6278782330052644
1499368325894,0.21490806439307253,0.7510490577553979,-0.6112764171816587
1499368325926,0.2066071564812697,0.7481193255512322,-0.6166475928892958
1499368325958,0.20807202258335256,0.7486076142519265,-0.6122529945830473
1499368325990,0.22125581750209822,0.7412832837415122,-0.6127412832837416
1499368326022,0.20904859998474112,0.7422598611429008,-0.6293430991073472
1499368326054,0.2100251773861297,0.7442130159456779,-0.6093232623788816
1499368326086,0.2124666208896011,0.7451895933470665,-0.6244602121004044
1499368326118,0.21149004348821254,0.7451895933470665,-0.6317845426108186
1499368326150,0.22223239490348679,0.7373769741359579,-0.6249485008010986
1499368326182,0.21197833218890683,0.7490959029526207,-0.6366674296177615
1499368326214,0.20856031128404684,0.7349355306324865,-0.6229953459983215
1499368326246,0.21100175478751826,0.7437247272449836,-0.6322728313115129
1499368326278,0.2066071564812697,0.7383535515373465,-0.6264133669031815
1499368326310,0.2124666208896011,0.7432364385442893,-0.6327611200122072
1499368326342,0.21734950789654395,0.7407949950408179,-0.6332494087129015
1499368326374,0.2129549095902954,0.7403067063401236,-0.6400854505226214
1499368326406,0.207095445181964,0.7378652628366522,-0.6264133669031815
1499368326438,0.20270084687571543,0.7383535515373465,-0.6205539024948501
1499368326470,0.21686121919584966,0.7422598611429008,-0.6273899443045701
1499368326497,0.21490806439307253,0.7398184176394293,-0.6234836346990158
1499368326529,0.21197833218890683,0.7451895933470665,-0.622018768596933
1499368326561,0.20807202258335256,0.7447013046463722,-0.6078583962767987
1499368326593,0.21051346608682397,0.7388418402380408,-0.6288548104066529
1499368326625,0.20904859998474112,0.7417715724422065,-0.6244602121004044
1499368326657,0.21197833218890683,0.7378652628366522,-0.6161593041886015
1499368326689,0.21344319829098968,0.7393301289387351,-0.6327611200122072
1499368326721,0.21149004348821254,0.7344472419317922,-0.6225070572976272
1499368326753,0.2100251773861297,0.7373769741359579,-0.6225070572976272
1499368326785,0.21832608529793252,0.746166170748455,-0.6386205844205386
1499368326817,0.21637293049515538,0.742748149843595,-0.6195773250934615
1499368326849,0.20807202258335256,0.7349355306324865,-0.6352025635156786
1499368326881,0.21734950789654395,0.7422598611429008,-0.6449683375295643
1499368326913,0.20514229037918685,0.7412832837415122,-0.6303196765087358
1499368326945,0.21344319829098968,0.7398184176394293,-0.622018768596933
1499368326977,0.2153963530937668,0.7407949950408179,-0.6249485008010986
1499368327009,0.21149004348821254,0.7368886854352636,-0.6225070572976272
1499368327041,0.21783779659723823,0.7329823758297094,-0.6293430991073472
1499368327073,0.2153963530937668,0.7398184176394293,-0.6229953459983215
1499368327105,0.21100175478751826,0.7447013046463722,-0.6190890363927672
1499368327137,0.21490806439307253,0.7417715724422065,-0.6195773250934615
1499368327168,0.20270084687571543,0.7359121080338751,-0.6293430991073472
1499368327200,0.2153963530937668,0.7486076142519265,-0.6288548104066529
1499368327232,0.21832608529793252,0.742748149843595,-0.6244602121004044
1499368327264,0.2158846417944611,0.7349355306324865,-0.6244602121004044
1499368327296,0.21100175478751826,0.7339589532310979,-0.6146944380865187
1499368327328,0.21197833218890683,0.7339589532310979,-0.6288548104066529
1499368327360,0.21979095140001537,0.7354238193331808,-0.6503395132372014
1499368327392,0.21149004348821254,0.7320057984283208,-0.63422598611429
1499368327424,0.21686121919584966,0.7403067063401236,-0.64448004882887
1499368327456,0.20758373388265827,0.742748149843595,-0.6288548104066529
1499368327488,0.20856031128404684,0.7407949950408179,-0.6361791409170672
1499368327520,0.21441977569237824,0.7417715724422065,-0.6391088731212329
1499368327552,0.21100175478751826,0.7329823758297094,-0.6288548104066529
1499368327584,0.22272068360418107,0.7398184176394293,-0.6322728313115129
1499368327616,0.2246738384069582,0.7442130159456779,-0.6244602121004044
1499368327648,0.21686121919584966,0.7476310368505379,-0.6288548104066529
1499368327680,0.207095445181964,0.746166170748455,-0.6127412832837416
1499368327712,0.22125581750209822,0.7334706645304037,-0.6454566262302586
1499368327744,0.21149004348821254,0.7476310368505379,-0.6322728313115129
1499368327772,0.2251621271076525,0.7320057984283208,-0.64448004882887
1499368327804,0.2158846417944611,0.7329823758297094,-0.622018768596933
1499368327836,0.22076752880140393,0.7329823758297094,-0.6317845426108186
1499368327868,0.21149004348821254,0.7310292210269322,-0.6332494087129015
1499368327900,0.21686121919584966,0.7256580453192951,-0.6303196765087358
1499368327932,0.21490806439307253,0.7256580453192951,-0.6566872663462271
1499368327964,0.23248645761806674,0.727122911421378,-0.6449683375295643
1499368327996,0.22076752880140393,0.7251697566186008,-0.6640115968566414
1499368328028,0.21832608529793252,0.7178454261081866,-0.6435034714274814
1499368328060,0.21734950789654395,0.7090562294956895,-0.6537575341420614
1499368328092,0.2095368886854354,0.7158922713054094,-0.6610818646524756
1499368328123,0.2153963530937668,0.7022201876859695,-0.6820782787823298
1499368328155,0.22027924010070965,0.7002670328831924,-0.7138170443274587
1499368328187,0.2217441062027925,0.7022201876859695,-0.6977035172045474
1499368328219,0.22125581750209822,0.7095445181963838,-0.6688944838635842
1499368328251,0.21441977569237824,0.7095445181963838,-0.64789806973373
1499368328283,0.21734950789654395,0.7139391165026323,-0.6542458228427557
1499368328315,0.2188143739986268,0.7334706645304037,-0.6459449149309529
1499368328347,0.21734950789654395,0.7344472419317922,-0.6322728313115129
1499368328379,0.22076752880140393,0.7349355306324865,-0.6483863584344243
1499368328411,0.21832608529793252,0.7383535515373465,-0.6112764171816587
1499368328443,0.2153963530937668,0.7393301289387351,-0.6225070572976272
1499368328475,0.20416571297779829,0.7447013046463722,-0.618600747692073
1499368328507,0.21930266269932108,0.7466544594491493,-0.598092622262913
1499368328539,0.2246738384069582,0.7432364385442893,-0.6264133669031815
1499368328571,0.2251621271076525,0.749584191653315,-0.6210421911955444
1499368328603,0.22125581750209822,0.7471427481498436,-0.6322728313115129
1499368328635,0.2188143739986268,0.7403067063401236,-0.6537575341420614
1499368328667,0.22272068360418107,0.7398184176394293,-0.6264133669031815
1499368328699,0.2246738384069582,0.7378652628366522,-0.6361791409170672
1499368328731,0.21783779659723823,0.7417715724422065,-0.615182726787213
1499368328763,0.21686121919584966,0.730540932326238,-0.6366674296177615
1499368328795,0.22418554970626392,0.7407949950408179,-0.6244602121004044
1499368328827,0.2217441062027925,0.7300526436255437,-0.6352025635156786
1499368328858,0.2280918593118182,0.7261463340199894,-0.6366674296177615
1499368328890,0.22418554970626392,0.7412832837415122,-0.6400854505226214
1499368328922,0.22076752880140393,0.7364003967345694,-0.6435034714274814
1499368328954,0.21734950789654395,0.7354238193331808,-0.6317845426108186
1499368328986,0.2246738384069582,0.7373769741359579,-0.6176241702906844
1499368329018,0.2188143739986268,0.7339589532310979,-0.6312962539101243
1499368329047,0.22320897230487535,0.7359121080338751,-0.63764400701915
1499368329079,0.21930266269932108,0.7422598611429008,-0.6415503166247043
1499368329111,0.21979095140001537,0.7315175097276265,-0.6264133669031815
1499368329143,0.22662699320973534,0.7339589532310979,-0.6181124589913787
1499368329175,0.22711528191042962,0.730540932326238,-0.6391088731212329
1499368329206,0.22125581750209822,0.7412832837415122,-0.6303196765087358
1499368329238,0.2153963530937668,0.7373769741359579,-0.6317845426108186
1499368329270,0.22027924010070965,0.7339589532310979,-0.6107881284809644
1499368329302,0.21930266269932108,0.7412832837415122,-0.6518043793392843
1499368329334,0.2158846417944611,0.7398184176394293,-0.63764400701915
1499368329366,0.22320897230487535,0.7349355306324865,-0.6327611200122072
1499368329398,0.22223239490348679,0.7388418402380408,-0.64789806973373
1499368329430,0.21783779659723823,0.7412832837415122,-0.6273899443045701
1499368329462,0.21930266269932108,0.7368886854352636,-0.6264133669031815
1499368329494,0.23004501411459533,0.7378652628366522,-0.6312962539101243
1499368329526,0.21979095140001537,0.7422598611429008,-0.6264133669031815
1499368329558,0.22076752880140393,0.7334706645304037,-0.6283665217059586
1499368329590,0.21686121919584966,0.7359121080338751,-0.6415503166247043
1499368329622,0.22565041580834677,0.7412832837415122,-0.6195773250934615
1499368329654,0.2129549095902954,0.7354238193331808,-0.6317845426108186
1499368329686,0.22076752880140393,0.7354238193331808,-0.6352025635156786
1499368329718,0.21734950789654395,0.730540932326238,-0.6303196765087358
1499368329750,0.21832608529793252,0.7354238193331808,-0.6312962539101243
1499368329782,0.2188143739986268,0.7276112001220723,-0.6195773250934615
1499368329813,0.21100175478751826,0.7324940871290151,-0.6435034714274814
1499368329845,0.21783779659723823,0.7368886854352636,-0.6405737392233157
1499368329877,0.22369726100556964,0.7276112001220723,-0.6395971618219272
1499368329909,0.21734950789654395,0.727122911421378,-0.6537575341420614
1499368329941,0.22027924010070965,0.7246814679179066,-0.6317845426108186
1499368329973,0.2217441062027925,0.7324940871290151,-0.6469214923323414
1499368330005,0.21930266269932108,0.727122911421378,-0.63080796520943
1499368330037,0.21490806439307253,0.7266346227206837,-0.6522926680399785
1499368330069,0.21490806439307253,0.7349355306324865,-0.6361791409170672
1499368330101,0.22076752880140393,0.7285877775234608,-0.6439917601281757
1499368330133,0.21197833218890683,0.7290760662241551,-0.6395971618219272
1499368330165,0.22027924010070965,0.7290760662241551,-0.6459449149309529
1499368330197,0.21490806439307253,0.7324940871290151,-0.6532692454413671
1499368330229,0.22223239490348679,0.7266346227206837,-0.6371557183184557
1499368330261,0.2217441062027925,0.7300526436255437,-0.6518043793392843
1499368330293,0.21930266269932108,0.720286869611658,-0.6288548104066529
1499368330322,0.2124666208896011,0.7207751583123523,-0.6474097810330357
1499368330354,0.21344319829098968,0.7295643549248494,-0.6234836346990158
1499368330385,0.21734950789654395,0.7295643549248494,-0.6425268940260929
1499368330417,0.2217441062027925,0.7241931792172123,-0.6405737392233157
1499368330449,0.22272068360418107,0.7354238193331808,-0.6449683375295643
1499368330481,0.23004501411459533,0.7329823758297094,-0.6371557183184557
1499368330513,0.21930266269932108,0.7364003967345694,-0.6386205844205386
1499368330545,0.22320897230487535,0.7334706645304037,-0.6293430991073472
1499368330577,0.22662699320973534,0.7324940871290151,-0.6327611200122072
1499368330609,0.21783779659723823,0.7344472419317922,-0.615182726787213
1499368330641,0.22027924010070965,0.742748149843595,-0.64789806973373
1499368330673,0.21783779659723823,0.7378652628366522,-0.6439917601281757
1499368330705,0.2251621271076525,0.7310292210269322,-0.65131609063859
1499368330737,0.22613870450904106,0.7285877775234608,-0.6146944380865187
1499368330769,0.22369726100556964,0.7339589532310979,-0.6405737392233157
1499368330801,0.21930266269932108,0.7261463340199894,-0.6332494087129015
1499368330833,0.22711528191042962,0.730540932326238,-0.6205539024948501
1499368330865,0.22565041580834677,0.7315175097276265,-0.6532692454413671
1499368330897,0.22027924010070965,0.7266346227206837,-0.6347142748149843
1499368330928,0.2251621271076525,0.727122911421378,-0.65131609063859
1499368330960,0.22369726100556964,0.7222400244144351,-0.6288548104066529
1499368330992,0.22223239490348679,0.7246814679179066,-0.6449683375295643
1499368331024,0.22320897230487535,0.730540932326238,-0.6303196765087358
1499368331056,0.22906843671320676,0.7217517357137408,-0.64448004882887
1499368331088,0.21979095140001537,0.7339589532310979,-0.6352025635156786
1499368331120,0.22369726100556964,0.7285877775234608,-0.6259250782024872
1499368331152,0.21783779659723823,0.723704890516518,-0.6176241702906844
1499368331184,0.22955672541390104,0.7324940871290151,-0.6386205844205386
1499368331216,0.22858014801251247,0.7261463340199894,-0.6259250782024872
1499368331248,0.2188143739986268,0.7232166018158237,-0.6322728313115129
1499368331280,0.21783779659723823,0.730540932326238,-0.6430151827267871
1499368331312,0.2251621271076525,0.7261463340199894,-0.6459449149309529
1499368331344,0.2217441062027925,0.7280994888227665,-0.6347142748149843
1499368331376,0.2188143739986268,0.7241931792172123,-0.6361791409170672
1499368331408,0.23297474631876103,0.7207751583123523,-0.6615701533531699
1499368331440,0.23199816891737246,0.7266346227206837,-0.6537575341420614
1499368331471,0.22418554970626392,0.7300526436255437,-0.6449683375295643
1499368331503,0.22565041580834677,0.7280994888227665,-0.6244602121004044
1499368331535,0.22613870450904106,0.7349355306324865,-0.6322728313115129
1499368331567,0.22125581750209822,0.7310292210269322,-0.6332494087129015
1499368331596,0.22076752880140393,0.7300526436255437,-0.6395971618219272
1499368331628,0.21686121919584966,0.7315175097276265,-0.6229953459983215
1499368331660,0.22369726100556964,0.7364003967345694,-0.6352025635156786
1499368331692,0.21930266269932108,0.7339589532310979,-0.6371557183184557
1499368331724,0.22223239490348679,0.7329823758297094,-0.6210421911955444
1499368331756,0.22613870450904106,0.7344472419317922,-0.6405737392233157
1499368331788,0.22125581750209822,0.7310292210269322,-0.6195773250934615
1499368331820,0.21783779659723823,0.7276112001220723,-0.6239719233997101
1499368331852,0.21979095140001537,0.7320057984283208,-0.6557106889448385
1499368331883,0.21930266269932108,0.7251697566186008,-0.6347142748149843
1499368331915,0.23297474631876103,0.7227283131151294,-0.6474097810330357
1499368331947,0.22418554970626392,0.7280994888227665,-0.6234836346990158
1499368331979,0.2280918593118182,0.720286869611658,-0.6371557183184557
1499368332011,0.21686121919584966,0.7197985809109637,-0.65131609063859
1499368332043,0.22418554970626392,0.7110093842984666,-0.6679179064621956
1499368332075,0.2217441062027925,0.7173571374074923,-0.6684061951628899
1499368332107,0.2158846417944611,0.7095445181963838,-0.6654764629587242
1499368332139,0.22125581750209822,0.706614785992218,-0.6400854505226214
1499368332171,0.21979095140001537,0.7007553215838866,-0.6586404211490042
1499368332203,0.22418554970626392,0.7051499198901352,-0.6620584420538642
1499368332235,0.22613870450904106,0.7012436102845809,-0.64789806973373
1499368332267,0.21783779659723823,0.7046616311894409,-0.670359349965667
1499368332299,0.22125581750209822,0.7017318989852752,-0.6601052872510871
1499368332331,0.22223239490348679,0.7036850537880524,-0.6654764629587242
1499368332362,0.2217441062027925,0.7031967650873581,-0.6620584420538642
1499368332394,0.2251621271076525,0.7051499198901352,-0.6435034714274814
1499368332426,0.22223239490348679,0.7071030746929123,-0.666941329060807
1499368332458,0.21637293049515538,0.7012436102845809,-0.6908674753948274
1499368332490,0.2276035706111239,0.7071030746929123,-0.6679179064621956
1499368332522,0.2251621271076525,0.6968490119783324,-0.6532692454413671
1499368332554,0.22565041580834677,0.7041733424887466,-0.6698710612649728
1499368332586,0.22320897230487535,0.6988021667811095,-0.6688944838635842
1499368332618,0.22906843671320676,0.6988021667811095,-0.6708476386663613
1499368332650,0.23443961242084388,0.680735484855421,-0.6708476386663613
1499368332682,0.22418554970626392,0.6753643091477839,-0.6913557640955217
1499368332714,0.22711528191042962,0.6822003509575039,-0.6947737850003817
1499368332746,0.2280918593118182,0.6826886396581981,-0.707469291218433
1499368332778,0.23541618982223245,0.6826886396581981,-0.6820782787823298
1499368332810,0.23541618982223245,0.6880598153658353,-0.6820782787823298
1499368332842,0.22662699320973534,0.6939192797741667,-0.6503395132372014
1499368332871,0.22613870450904106,0.7012436102845809,-0.6620584420538642
1499368332903,0.22076752880140393,0.6963607232776381,-0.6542458228427557
1499368332935,0.22076752880140393,0.7085679407949952,-0.6664530403601128
1499368332967,0.21930266269932108,0.7090562294956895,-0.6601052872510871
1499368332998,0.2276035706111239,0.7105210955977723,-0.6400854505226214
1499368333030,0.23004501411459533,0.7183337148088809,-0.666941329060807
1499368333062,0.21490806439307253,0.7300526436255437,-0.64106202792401
1499368333094,0.18414587624933265,0.7154039826047152,-0.5736781872281989
1499368333126,0.18512245365072122,0.7725337605859464,-0.7357900358587015
1499368333158,0.2573891813534752,0.7422598611429008,-0.5600061036087585
1499368333190,0.1524071107042042,0.7383535515373465,-0.5932097352559702
1499368333222,0.1680323491264213,0.7451895933470665,-0.7016098268101016
1499368333254,0.21832608529793252,0.6543678950179297,-0.7191882200350959
1499368333286,0.21149004348821254,0.7637445639734493,-0.6469214923323414
1499368333318,0.2998702983138779,0.6348363469901583,-0.6898908979934388
1499368333350,0.3565117875944148,0.6572976272220954,-0.7445792324711986
1499368333382,0.3394216830701149,0.6245822842755775,-0.6391088731212329
1499368333414,0.42096589608606116,0.6074921797512776,-0.6864728770885784
1499368333445,0.33698023956664347,0.6568093385214011,-0.7050278477149616
1499368333477,0.31696040283817783,0.6753643091477839,-0.6537575341420614
1499368333509,0.32281986724650924,0.7012436102845809,-0.6542458228427557
1499368333541,0.31354238193331785,0.6968490119783324,-0.6366674296177615
1499368333573,0.3115892271305407,0.6939192797741667,-0.5941863126573588
1499368333605,0.30426489662012646,0.7090562294956895,-0.6034637979705502
1499368333637,0.3213550011444264,0.7017318989852752,-0.6391088731212329
1499368333669,0.31696040283817783,0.7139391165026323,-0.6693827725642785
1499368333701,0.30475318532082074,0.7017318989852752,-0.6146944380865187
1499368333733,0.30719462882429216,0.706614785992218,-0.6234836346990158
1499368333765,0.3184252689402607,0.6929427023727781,-0.6459449149309529
1499368333797,0.31354238193331785,0.6865949492637524,-0.6137178606851301
1499368333829,0.31354238193331785,0.6968490119783324,-0.6644998855573356
1499368333861,0.3125658045319293,0.6953841458762495,-0.677195391775387
1499368333893,0.31403067063401213,0.6719462882429239,-0.6679179064621956
1499368333924,0.3145189593347064,0.6782940413519496,-0.6601052872510871
1499368333956,0.32233157854581496,0.6646219577325096,-0.6317845426108186
1499368333988,0.31012436102845786,0.6865949492637524,-0.6522926680399785
1499368334020,0.3023117418173493,0.6880598153658353,-0.6566872663462271
1499368334052,0.2993820096131836,0.6836652170595867,-0.5995574883649959
1499368334084,0.3003585870145722,0.7036850537880524,-0.6498512245365071
1499368334116,0.32819104295414636,0.6577859159227897,-0.6869611657892727
1499368334145,0.31647211413748355,0.6695048447394525,-0.6586404211490042
1499368334177,0.31110093842984643,0.6646219577325096,-0.6898908979934388
1499368334209,0.3091477836270693,0.6768291752498667,-0.6317845426108186
1499368334241,0.3208667124437321,0.6699931334401468,-0.6659647516594185
1499368334273,0.31354238193331785,0.6743877317463953,-0.65815213244831
1499368334305,0.3067063401235979,0.6763408865491725,-0.6273899443045701
1499368334337,0.3213550011444264,0.6680399786373696,-0.6601052872510871
1499368334369,0.32281986724650924,0.6851300831616696,-0.6991683833066302
1499368334401,0.3179369802395664,0.6846417944609753,-0.63422598611429
1499368334433,0.3242847333485921,0.6856183718623639,-0.608346684977493
1499368334465,0.31696040283817783,0.6865949492637524,-0.6391088731212329
1499368334497,0.3242847333485921,0.6831769283588924,-0.6498512245365071
1499368334528,0.3174486915388721,0.6817120622568096,-0.6552224002441442
1499368334560,0.315495536736095,0.6861066605630581,-0.6571755550469214
1499368334592,0.34381628137636344,0.6826886396581981,-0.7396963454642558
1499368334624,0.3208667124437321,0.6607156481269554,-0.6723125047684442
1499368334656,0.2993820096131836,0.6939192797741667,-0.6610818646524756
1499368334688,0.3306324864576178,0.6748760204470896,-0.618600747692073
1499368334720,0.3233081559472035,0.6880598153658353,-0.6239719233997101
1499368334752,0.31012436102845786,0.6880598153658353,-0.6693827725642785
1499368334784,0.3184252689402607,0.6758525978484782,-0.6366674296177615
1499368334816,0.3150072480354007,0.6870832379644467,-0.6269016556038758
1499368334848,0.32574959945067494,0.6763408865491725,-0.6332494087129015
1499368334880,0.3067063401235979,0.6822003509575039,-0.6605935759517814
1499368334912,0.28278019378957797,0.6729228656443125,-0.6830548561837184
1499368334943,0.33405050736247777,0.6504615854123754,-0.6845197222858013
1499368334975,0.13385214007782142,0.713450827801938,-0.5634241245136189
1499368335007,0.1738918135347527,0.5166704814221408,-0.5121538109407187
1499368335039,0.2339513237201496,0.9571068894483865,-0.6093232623788816
1499368335071,0.44538033112077535,0.7251697566186008,-0.7733882658121614
1499368335103,0.26569008926527804,0.8408941786831461,-0.7494621194781415
1499368335135,0.4107118333714812,0.5318074311436636,-0.85639734493019
1499368335167,0.4072938124666212,0.5210650797283893,-0.8979018844892042
1499368335199,0.34723430228122343,0.5615930418860149,-0.9682154573891815
1499368335231,0.28912794689860366,0.5249713893339436,-0.7938963912413213
1499368335263,0.2857099259937437,0.5293659876401922,-0.7636224917982757
1499368335295,0.28082703898680084,0.6035858701457233,-0.7660639353017471
1499368335327,0.2456702525368124,0.5777065690089263,-0.6586404211490042
1499368335359,0.2935225452048522,0.5972381170366976,-0.7440909437705043
1499368335390,0.3247730220492864,0.5786831464103148,-0.8466315709163044
1499368335420,0.23883421072709243,0.6240939955748832,-0.687449454489967
1499368335452,0.26520180056458376,0.6157930876630804,-0.717723353933013
1499368335484,0.24420538643472955,0.6187228198672461,-0.7167467765316244
1499368335516,0.2700846875715266,0.6226291294728004,-0.7182116426337073
1499368335548,0.30426489662012646,0.6460669871061269,-0.76411078049897
1499368335580,0.2671549553673609,0.6382543678950183,-0.74702067597467
1499368335612,0.2485999847409781,0.6231174181734946,-0.6459449149309529
1499368335643,0.2544594491493095,0.6323949034866869,-0.6977035172045474
1499368335675,0.2544594491493095,0.6348363469901583,-0.7260242618448158
1499368335707,0.2485999847409781,0.6148165102616918,-0.7372549019607844
1499368335739,0.24811169604028382,0.6118867780575261,-0.7562981612878614
1499368335771,0.2305333028152896,0.5855191882200348,-0.7597161821927214
1499368335803,0.24029907682917528,0.5869840543221176,-0.8017090104524298
1499368335835,0.23492790112153816,0.5821011673151748,-0.8178225375753416
1499368335867,0.21832608529793252,0.5757534142061491,-0.7807125963225756
1499368335899,0.22565041580834677,0.577218280308232,-0.793408102540627
1499368335931,0.23639276722362101,0.6021210040436404,-0.7772945754177156
1499368335963,0.22223239490348679,0.5830777447165634,-0.7377431906614786
1499368335995,0.22076752880140393,0.6138399328603033,-0.8085450522621498
1499368336027,0.2158846417944611,0.6070038910505833,-0.7685053788052185
1499368336058,0.18072785534447267,0.6094453345540547,-0.7543450064850843
1499368336090,0.1734035248340584,0.6494850080109869,-0.7802243076218813
1499368336122,0.19049362935835834,0.6529030289158468,-0.7553215838864729
1499368336154,0.1167620355535206,0.613351644159609,-0.6684061951628899
1499368336186,0.09771877622644354,0.6602273594262611,-0.6566872663462271
1499368336218,0.1231097886625463,0.684153505760281,-0.6854962996871898
1499368336250,0.14264133669031853,0.680735484855421,-0.7025864042114902
1499368336282,0.1401998931868471,0.7022201876859695,-0.6947737850003817
1499368336314,0.1582665751125356,0.6641336690318154,-0.6552224002441442
1499368336346,0.21149004348821254,0.6509498741130697,-0.6620584420538642
1499368336378,0.2246738384069582,0.6402075226977955,-0.731395437552453
1499368336410,0.22858014801251247,0.6509498741130697,-0.7904783703364613
1499368336441,0.20563057907988114,0.5904020752269776,-0.7528801403830014
1499368336473,0.20807202258335256,0.5791714351110091,-0.7870603494316013
1499368336505,0.22272068360418107,0.5557335774776835,-0.8134279392690931
1499368336537,0.23883421072709243,0.5235065232318608,-0.800244144350347
1499368336569,0.2612954909590295,0.5000686655985351,-0.7826657511253527
1499368336601,0.2515297169451438,0.49665064469367515,-0.85981536583505
1499368336633,0.2339513237201496,0.46100556954299243,-0.8583504997329672
1499368336665,0.2510414282444495,0.45123979552910676,-0.8832532234683756
1499368336694,0.2461585412375067,0.422430762188144,-0.9071793698023956
1499368336726,0.2573891813534752,0.393133440146487,-0.8710460059510186
1499368336758,0.24078736552986957,0.3770199130235756,-0.8979018844892042
1499368336790,0.2510414282444495,0.37604333562218706,-0.9413595788509959
1499368336822,0.2578774700541695,0.35846494239719195,-0.9032730601968413
1499368336854,0.25983062485694663,0.36725413900968906,-0.9120622568093384
1499368336886,0.25397116044861523,0.3662775616083005,-0.9013199053940641
1499368336918,0.25641260395208665,0.3721370260166319,-0.8988784618905927
1499368336950,0.25348287174792095,0.40045777065690125,-0.8852063782711528
1499368336982,0.25299458304722666,0.389715419241627,-0.8354009308003358
1499368337014,0.24811169604028382,0.4195010299839783,-0.85639734493019
1499368337046,0.24371709773403527,0.41510643167772976,-0.8642099641412986
1499368337077,0.2490882734416724,0.41266498817425834,-0.85297932402533
1499368337109,0.2485999847409781,0.3985046158541241,-0.8661631189440757
1499368337141,0.2525062943465324,0.386297398336767,-0.8646982528419929
1499368337173,0.25397116044861523,0.36481269550621764,-0.8759288929579614
1499368337205,0.26276035706111234,0.34381628137636344,-0.9174334325169755
1499368337237,0.2666666666666666,0.31989013504234354,-0.9081559472037841
1499368337269,0.2735027084763866,0.32233157854581496,-0.946730754558633
1499368337301,0.16510261692225559,0.2007476920729383,-0.8852063782711528
1499368337333,0.2666666666666666,0.28375677119096654,-0.9193865873197526
1499368337365,0.24762340733958954,0.2788738841840237,-0.9403830014496073
1499368337397,0.2456702525368124,0.28278019378957797,-0.932082093537804
1499368337429,0.25934233615625235,0.24762340733958954,-0.9101091020065613
1499368337460,0.2603189135576409,0.26227206836041805,-0.9457541771572444
1499368337492,0.24176394293125814,0.28326848249027226,-0.9389181353475244
1499368337524,0.2730144197756923,0.22565041580834677,-0.9149919890135041
1499368337556,0.25983062485694663,0.19342336156252404,-0.9013199053940641
1499368337588,0.2754558632791637,0.1948882276646069,-0.902784771496147
1499368337620,0.25934233615625235,0.19977111467154973,-0.9267109178301669
1499368337652,0.26813153276874946,0.2822919050888837,-0.9945830472266728
1499368337684,0.2632486457618066,0.21930266269932108,-0.9428244449530787
1499368337716,0.2915693904020751,0.21686121919584966,-0.9599145494773786
1499368337748,0.2642252231631952,0.21344319829098968,-0.9428244449530787
1499368337780,0.2705729762722209,0.23199816891737246,-0.9408712901503016
1499368337812,0.2632486457618066,0.23443961242084388,-0.9315938048371097
1499368337843,0.2695963988708323,0.2276035706111239,-0.932082093537804
1499368337875,0.2661783779659723,0.23297474631876103,-0.9477073319600215
1499368337907,0.2676432440680552,0.2310215915159839,-0.9188982986190584
1499368337939,0.2647135118638895,0.23492790112153816,-0.9623559929808501
1499368337969,0.2730144197756923,0.22565041580834677,-0.9228046082246126
1499368338001,0.27106126497291516,0.2461585412375067,-0.9452658884565501
1499368338033,0.28668650339513224,0.2158846417944611,-0.9267109178301669
1499368338065,0.29010452429999223,0.2573891813534752,-0.9994659342336156
1499368338097,0.3032883192187379,0.28668650339513224,-0.9740749217975129
1499368338129,0.27692072938124657,0.38483253223468417,-1.0316929884794384
1499368338161,0.2642252231631952,0.44293888761730393,-1.0439002059967954
1499368338192,0.2847333485923551,0.6270237277790498,-0.85981536583505
1499368338224,0.059632257572289404,0.4732127870603495,-1.1493705653467612
1499368338256,0.39996948195620696,-0.1371480888075074,-1.1366750591287098
1499368338288,0.1377584496833757,1.309163042648966,-0.14154268711375595
1499368338320,-0.240665293354696,0.730540932326238,-0.4276798657206071
1499368338352,-0.04095521477073305,0.9585717555504694,-0.6161593041886015
1499368338384,0.04644846265354374,1.0034943160143435,-0.7118638895246816
1499368338416,0.08746471351186358,0.5821011673151748,-0.7035629816128788
1499368338448,0.07086289768825793,0.5215533684290836,-0.6200656137941558
1499368338480,-0.04583810177767589,0.6880598153658353,-0.6801251239795527
1499368338512,-0.07562371252002764,0.7071030746929123,-0.7377431906614786
1499368338544,-0.06195162890058725,0.6475318532082097,-0.7235828183413444
1499368338575,0.025940337224383825,0.6172579537651632,-0.6835431448844127
1499368338607,0.13141069657435,1.106034943160143,-0.3070725566491186
1499368338639,0.1524071107042042,0.7212634470130466,-0.5927214465552759
1499368338671,0.10894941634241206,0.4824902723735409,-0.7768062867170213
1499368338703,0.13385214007782142,0.4951857785915923,-1.1259327077134356
1499368338735,0.1465476462958728,0.49713893339436943,-1.1933165484092472
1499368338767,0.11285572594796633,0.5029983978027008,-0.7431143663691158
1499368338799,0.08599984740978073,0.5640344853894863,-0.7079575799191273
1499368338831,0.11334401464866062,0.577218280308232,-0.7919432364385441
1499368338863,0.10553139543755208,0.5874723430228119,-0.8168459601739531
1499368338895,0.11432059205004919,0.5528038452735178,-0.7816891737239642
1499368338926,0.1138323033493549,0.5821011673151748,-0.8056153200579841
1499368338958,0.12457465476462914,0.5786831464103148,-0.8031738765545127
1499368338990,0.12115663385976916,0.5767299916075377,-0.8104982070649269
1499368339022,0.10992599374380063,0.5679407949950406,-0.8075684748607612
1499368339054,0.12066834515907487,0.5650110627908749,-0.8178225375753416
1499368339086,0.11578545815213204,0.573800259403372,-0.800244144350347
1499368339118,0.11871519035629774,0.5713588158999006,-0.8012207217517355
1499368339150,0.1167620355535206,0.5786831464103148,-0.7992675669489584
1499368339182,0.11432059205004919,0.5659876401922634,-0.796826123445487
1499368339214,0.11432059205004919,0.5698939497978177,-0.7821774624246585
1499368339244,0.1231097886625463,0.5518272678721292,-0.8207522697795073
1499368339276,0.1138323033493549,0.5435263599603264,-0.8187991149767302
1499368339308,0.10748455024032921,0.527412832837415,-0.8261234454871444
1499368339339,0.12506294346532432,0.5010452429999237,-0.8319829098954759
1499368339371,0.11920347905699202,0.49323262378881516,-0.8559090562294958
1499368339403,0.11285572594796633,0.46393530174715814,-0.8852063782711528
1499368339435,0.10162508583199781,0.45123979552910676,-0.8856946669718471
1499368339467,0.10211337453269209,0.42682536049439257,-0.9125505455100327
1499368339499,0.10113679713130352,0.42096589608606116,-0.9066910811017013
1499368339531,0.10455481803616351,0.40387579156176123,-0.9228046082246126
1499368339563,0.10357824063477494,0.38580910963607273,-0.9281757839322498
1499368339595,0.10699626153963493,0.37946135652704704,-0.9188982986190584
1499368339627,0.10406652933546923,0.3716487373159376,-0.9218280308232241
1499368339659,0.09430075532158355,0.3653009842069119,-0.9247577630273898
1499368339690,0.09820706492713782,0.35895323109788624,-0.9242694743266955
1499368339722,0.10650797283894065,0.351628900587472,-0.9389181353475244
1499368339754,0.09381246662088927,0.3477225909819177,-0.9394064240482187
1499368339786,0.1050431067368578,0.34918745708400056,-0.9262226291294726
1499368339818,0.10650797283894065,0.35309376668955483,-0.9179217212176698
1499368339850,0.09771877622644354,0.34088654917219774,-0.9267109178301669
1499368339882,0.10601968413824636,0.348210879682612,-0.9418478675516901
1499368339914,0.1050431067368578,0.3457694361791406,-0.9164568551155869
1499368339946,0.09967193102922067,0.3477225909819177,-0.9315938048371097
1499368339978,0.10113679713130352,0.33502708476386633,-0.9374532692454411
1499368340010,0.10211337453269209,0.3360036621652549,-0.928664072632944
1499368340041,0.11285572594796633,0.33209735255970063,-0.9232928969253069
1499368340073,0.10992599374380063,0.3213550011444264,-0.9428244449530787
1499368340105,0.10308995193408066,0.31647211413748355,-0.9345235370412754
1499368340137,0.10211337453269209,0.3150072480354007,-0.9452658884565501
1499368340169,0.10894941634241206,0.312077515831235,-0.9472190432593273
1499368340201,0.10260166323338638,0.308659494926375,-0.9394064240482187
1499368340233,0.10260166323338638,0.31403067063401213,-0.9364766918440526
1499368340265,0.09527733272297212,0.305241474021515,-0.9472190432593273
1499368340297,0.09234760051880642,0.3003585870145722,-0.9579613946746015
1499368340329,0.09723048752574925,0.30719462882429216,-0.9481956206607158
1499368340361,0.09918364232852639,0.305241474021515,-0.9408712901503016
1499368340392,0.09918364232852639,0.30719462882429216,-0.953566796368353
1499368340424,0.10601968413824636,0.3062180514229036,-0.9306172274357212
1499368340456,0.10894941634241206,0.3062180514229036,-0.9550316624704358
1499368340488,0.0986953536278321,0.312077515831235,-0.9491721980621044
1499368340518,0.10650797283894065,0.30084687571526647,-0.9438010223544673
1499368340550,0.09381246662088927,0.3096360723277636,-0.9403830014496073
1499368340582,0.1050431067368578,0.30719462882429216,-0.9584496833752958
1499368340614,0.09723048752574925,0.29791714351110077,-0.9530785076676587
1499368340646,0.0986953536278321,0.29840543221179505,-0.9496604867627987
1499368340678,0.09918364232852639,0.3037766079194322,-0.9330586709391926
1499368340710,0.09527733272297212,0.29840543221179505,-0.939894712748913
1499368340742,0.0957656214236664,0.29791714351110077,-0.9306172274357212
1499368340774,0.09430075532158355,0.3062180514229036,-0.943312733653773
1499368340805,0.1050431067368578,0.3032883192187379,-0.9525902189669644
1499368340837,0.0928358892195007,0.2964522774090179,-0.9364766918440526
1499368340869,0.10357824063477494,0.2993820096131836,-0.9394064240482187
1499368340901,0.10064850843060924,0.30133516441596075,-0.9525902189669644
1499368340933,0.10016021972991496,0.30133516441596075,-0.9408712901503016
1499368340965,0.09674219882505497,0.2998702983138779,-0.939894712748913
1499368340997,0.10113679713130352,0.30084687571526647,-0.9540550850690472
1499368341029,0.1079728389410235,0.30475318532082074,-0.9511253528648815
1499368341061,0.10260166323338638,0.29498741130693507,-0.9442893110551616
1499368341093,0.0986953536278321,0.2964522774090179,-0.9394064240482187
1499368341125,0.09967193102922067,0.29596398870832363,-0.9477073319600215
1499368341156,0.09723048752574925,0.2964522774090179,-0.9496604867627987
1499368341188,0.10162508583199781,0.29010452429999223,-0.9413595788509959
1499368341220,0.09820706492713782,0.29010452429999223,-0.9447775997558558
1499368341252,0.10064850843060924,0.29547570000762935,-0.946730754558633
1499368341284,0.10016021972991496,0.2915693904020751,-0.9359884031433583
1499368341316,0.10601968413824636,0.29205767910276936,-0.943312733653773
1499368341348,0.10064850843060924,0.29791714351110077,-0.9472190432593273
1499368341380,0.10699626153963493,0.29205767910276936,-0.9496604867627987
1499368341412,0.10016021972991496,0.29498741130693507,-0.950148775463493
1499368341444,0.10357824063477494,0.2905928130006865,-0.9560082398718244
1499368341475,0.0986953536278321,0.2905928130006865,-0.946730754558633
1499368341507,0.09723048752574925,0.2940108339055465,-0.9550316624704358
1499368341539,0.09723048752574925,0.2998702983138779,-0.9521019302662701
1499368341571,0.10113679713130352,0.2915693904020751,-0.939894712748913
1499368341603,0.0986953536278321,0.2993820096131836,-0.9457541771572444
1499368341635,0.10455481803616351,0.2881513694972151,-0.9428244449530787
1499368341667,0.09967193102922067,0.29889372091248934,-0.946730754558633
1499368341699,0.09185931181811213,0.2940108339055465,-0.9457541771572444
1499368341731,0.0957656214236664,0.2964522774090179,-0.9579613946746015
1499368341763,0.09674219882505497,0.29498741130693507,-0.9447775997558558
1499368341793,0.09820706492713782,0.29840543221179505,-0.9555199511711301
1499368341825,0.09527733272297212,0.29889372091248934,-0.9477073319600215
1499368341857,0.09234760051880642,0.2876630807965208,-0.9530785076676587
1499368341888,0.10260166323338638,0.2940108339055465,-0.9491721980621044
1499368341920,0.09820706492713782,0.2881513694972151,-0.9564965285725187
1499368341952,0.09430075532158355,0.29840543221179505,-0.9413595788509959
1499368341984,0.09723048752574925,0.3081712062256807,-0.9496604867627987
1499368342016,0.09820706492713782,0.2881513694972151,-0.9335469596398869
1499368342048,0.10455481803616351,0.2944991226062408,-0.950148775463493
1499368342080,0.09918364232852639,0.3003585870145722,-0.9608911268787672
1499368342112,0.10113679713130352,0.2993820096131836,-0.9442893110551616
1499368342144,0.10553139543755208,0.30426489662012646,-0.935500114442664
1499368342176,0.10357824063477494,0.3028000305180436,-0.943312733653773
1499368342208,0.0928358892195007,0.29547570000762935,-0.9511253528648815
1499368342239,0.10406652933546923,0.2993820096131836,-0.9408712901503016
1499368342271,0.09478904402227784,0.2974288548104065,-0.946730754558633
1499368342303,0.09137102311741785,0.30182345311665504,-0.939894712748913
1499368342335,0.10455481803616351,0.29596398870832363,-0.9560082398718244
1499368342367,0.0869764248111693,0.2915693904020751,-0.9530785076676587
1499368342399,0.09234760051880642,0.3057297627222093,-0.953566796368353
1499368342431,0.10357824063477494,0.2915693904020751,-0.9599145494773786
1499368342463,0.09625391012436069,0.2998702983138779,-0.9521019302662701
1499368342495,0.09967193102922067,0.2964522774090179,-0.9511253528648815
1499368342527,0.089906157015335,0.29791714351110077,-0.9604028381780729
1499368342558,0.0928358892195007,0.29498741130693507,-0.9442893110551616
1499368342590,0.09967193102922067,0.29303425650415793,-0.9555199511711301
1499368342622,0.09185931181811213,0.29498741130693507,-0.9447775997558558
1499368342654,0.09527733272297212,0.29303425650415793,-0.9579613946746015
1499368342686,0.09625391012436069,0.29498741130693507,-0.946730754558633
1499368342718,0.09332417792019498,0.3032883192187379,-0.9389181353475244
1499368342750,0.09674219882505497,0.3091477836270693,-0.9389181353475244
1499368342782,0.09820706492713782,0.29791714351110077,-0.9530785076676587
1499368342814,0.10455481803616351,0.3062180514229036,-0.9364766918440526
1499368342846,0.09527733272297212,0.29205767910276936,-0.9481956206607158
1499368342877,0.09674219882505497,0.29498741130693507,-0.9579613946746015
1499368342909,0.10016021972991496,0.2871747920958265,-0.9496604867627987
1499368342941,0.10113679713130352,0.2935225452048522,-0.9477073319600215
1499368342973,0.09625391012436069,0.30084687571526647,-0.9477073319600215
1499368343005,0.09771877622644354,0.2998702983138779,-0.9452658884565501
1499368343037,0.08941786831464071,0.3003585870145722,-0.9647974364843215
1499368343067,0.10553139543755208,0.29303425650415793,-0.9359884031433583
1499368343099,0.08795300221255786,0.29840543221179505,-0.9530785076676587
1499368343131,0.10162508583199781,0.30475318532082074,-0.9384298466468302
1499368343163,0.09137102311741785,0.2974288548104065,-0.9301289387350269
1499368343195,0.10308995193408066,0.29205767910276936,-0.9472190432593273
1499368343227,0.09430075532158355,0.29205767910276936,-0.9496604867627987
1499368343259,0.08746471351186358,0.3057297627222093,-0.9428244449530787
1499368343291,0.09918364232852639,0.3032883192187379,-0.943312733653773
1499368343322,0.10064850843060924,0.3032883192187379,-0.9413595788509959
1499368343354,0.0957656214236664,0.3003585870145722,-0.9491721980621044
1499368343386,0.09967193102922067,0.29840543221179505,-0.9511253528648815
1499368343418,0.1050431067368578,0.29547570000762935,-0.9496604867627987
1499368343450,0.10162508583199781,0.2974288548104065,-0.9452658884565501
1499368343482,0.0986953536278321,0.2998702983138779,-0.9418478675516901
1499368343514,0.10211337453269209,0.28961623559929794,-0.950148775463493
1499368343546,0.09332417792019498,0.29205767910276936,-0.9477073319600215
1499368343578,0.0986953536278321,0.2944991226062408,-0.9555199511711301
1499368343610,0.09478904402227784,0.30084687571526647,-0.950148775463493
1499368343641,0.09820706492713782,0.29889372091248934,-0.9530785076676587
1499368343673,0.10260166323338638,0.29254596780346365,-0.9599145494773786
1499368343705,0.0986953536278321,0.29547570000762935,-0.9652857251850158
1499368343737,0.09918364232852639,0.30475318532082074,-0.9525902189669644
1499368343769,0.09381246662088927,0.2886396581979094,-0.9525902189669644
1499368343801,0.09527733272297212,0.29205767910276936,-0.9447775997558558
1499368343833,0.1050431067368578,0.28961623559929794,-0.9574731059739072
1499368343865,0.09625391012436069,0.29840543221179505,-0.9403830014496073
1499368343897,0.0928358892195007,0.29840543221179505,-0.9555199511711301
1499368343929,0.0957656214236664,0.2993820096131836,-0.943312733653773
1499368343960,0.0928358892195007,0.3003585870145722,-0.9525902189669644
1499368343992,0.09478904402227784,0.2993820096131836,-0.9638208590829329
1499368344024,0.09381246662088927,0.29303425650415793,-0.950148775463493
1499368344056,0.09137102311741785,0.28375677119096654,-0.9530785076676587
1499368344088,0.10162508583199781,0.28961623559929794,-0.9555199511711301
1499368344120,0.09967193102922067,0.28619821469443796,-0.9369649805447469
1499368344152,0.09820706492713782,0.2881513694972151,-0.9560082398718244
1499368344184,0.09137102311741785,0.2993820096131836,-0.9599145494773786
1499368344216,0.09625391012436069,0.2910811017013808,-0.9442893110551616
1499368344248,0.0986953536278321,0.2876630807965208,-0.9418478675516901
1499368344279,0.09625391012436069,0.2876630807965208,-0.953566796368353
1499368344311,0.09381246662088927,0.29254596780346365,-0.9677271686884872
1499368344342,0.09771877622644354,0.3032883192187379,-0.9491721980621044
1499368344374,0.10211337453269209,0.2915693904020751,-0.950148775463493
1499368344406,0.09918364232852639,0.2940108339055465,-0.9472190432593273
1499368344437,0.10016021972991496,0.29205767910276936,-0.9604028381780729
1499368344469,0.10455481803616351,0.29303425650415793,-0.9511253528648815
1499368344501,0.09723048752574925,0.2905928130006865,-0.953566796368353
1499368344533,0.09332417792019498,0.29889372091248934,-0.9662623025864043
1499368344565,0.09723048752574925,0.29498741130693507,-0.9491721980621044
1499368344597,0.0957656214236664,0.2915693904020751,-0.946730754558633
1499368344629,0.09918364232852639,0.2813153276874951,-0.9481956206607158
1499368344661,0.08892957961394643,0.2974288548104065,-0.9730983443961243
1499368344693,0.10699626153963493,0.28961623559929794,-0.946730754558633
1499368344724,0.10357824063477494,0.2998702983138779,-0.9481956206607158
1499368344756,0.09137102311741785,0.2822919050888837,-0.9511253528648815
1499368344788,0.09967193102922067,0.29547570000762935,-0.9491721980621044
1499368344820,0.09332417792019498,0.29303425650415793,-0.9540550850690472
1499368344852,0.0986953536278321,0.29596398870832363,-0.9608911268787672
1499368344884,0.0986953536278321,0.2905928130006865,-0.9569848172732129
1499368344916,0.09625391012436069,0.2944991226062408,-0.9530785076676587
1499368344948,0.10162508583199781,0.2842450598916608,-0.9438010223544673
1499368344980,0.09381246662088927,0.2940108339055465,-0.9521019302662701
1499368345012,0.09478904402227784,0.2876630807965208,-0.9389181353475244
1499368345043,0.09430075532158355,0.2940108339055465,-0.9481956206607158
1499368345075,0.09039444571602928,0.29010452429999223,-0.9403830014496073
1499368345107,0.0928358892195007,0.2935225452048522,-0.9442893110551616
1499368345139,0.10260166323338638,0.2969405661097122,-0.9496604867627987
1499368345171,0.10357824063477494,0.2964522774090179,-0.9516136415655758
1499368345203,0.09478904402227784,0.29010452429999223,-0.9521019302662701
1499368345235,0.09332417792019498,0.2857099259937437,-0.9682154573891815
1499368345267,0.09527733272297212,0.29254596780346365,-0.9584496833752958
1499368345299,0.0928358892195007,0.2915693904020751,-0.9345235370412754
1499368345331,0.09674219882505497,0.2915693904020751,-0.9472190432593273
1499368345362,0.09918364232852639,0.2910811017013808,-0.9516136415655758
1499368345394,0.09332417792019498,0.29010452429999223,-0.9735866330968186
1499368345426,0.09771877622644354,0.2964522774090179,-0.9325703822384983
1499368345458,0.10064850843060924,0.28619821469443796,-0.9525902189669644
1499368345490,0.09723048752574925,0.29498741130693507,-0.9452658884565501
1499368345522,0.10162508583199781,0.2905928130006865,-0.9550316624704358
1499368345554,0.09527733272297212,0.29254596780346365,-0.943312733653773
1499368345586,0.10064850843060924,0.2881513694972151,-0.9618677042801558
1499368345616,0.09967193102922067,0.2935225452048522,-0.9550316624704358
1499368345648,0.0957656214236664,0.28961623559929794,-0.9638208590829329
1499368345680,0.0928358892195007,0.29303425650415793,-0.9413595788509959
1499368345712,0.09820706492713782,0.29498741130693507,-0.9384298466468302
1499368345744,0.09723048752574925,0.28961623559929794,-0.9452658884565501
1499368345776,0.0986953536278321,0.2940108339055465,-0.9555199511711301
1499368345808,0.09967193102922067,0.2857099259937437,-0.9525902189669644
1499368345839,0.10064850843060924,0.2871747920958265,-0.9516136415655758
1499368345871,0.09918364232852639,0.2905928130006865,-0.96577401388571
1499368345903,0.09967193102922067,0.28278019378957797,-0.9530785076676587
1499368345935,0.0986953536278321,0.29547570000762935,-0.9677271686884872
1499368345967,0.09723048752574925,0.2910811017013808,-0.943312733653773
1499368345999,0.09918364232852639,0.29010452429999223,-0.9525902189669644
1499368346031,0.09527733272297212,0.2905928130006865,-0.9491721980621044
1499368346063,0.09185931181811213,0.2935225452048522,-0.9560082398718244
1499368346095,0.08502327000839216,0.29498741130693507,-0.9730983443961243
1499368346126,0.09771877622644354,0.29498741130693507,-1.024368657969024
1499368346158,0.09088273441672357,0.3150072480354007,-1.0175326161593041
1499368346190,0.08160524910353217,0.3267261768520635,-0.9530785076676587
1499368346222,0.09771877622644354,0.3628595407034405,-0.9193865873197526
1499368346254,0.0928358892195007,0.3638361181048291,-0.8676279850461586
1499368346286,0.10748455024032921,0.3716487373159376,-0.8593270771343557
1499368346318,0.10943770504310635,0.3511406118867777,-0.9442893110551616
1499368346350,0.09185931181811213,0.3452811474784463,-0.9125505455100327
1499368346382,0.10455481803616351,0.31696040283817783,-0.9643091477836272
1499368346414,0.09478904402227784,0.2993820096131836,-0.9892118715190357
1499368346445,0.08258182650492074,0.3091477836270693,-0.9496604867627987
1499368346477,0.09381246662088927,0.3150072480354007,-0.9511253528648815
1499368346509,0.09137102311741785,0.3237964446478978,-0.9301289387350269
1499368346541,0.10064850843060924,0.3277027542534521,-0.9325703822384983
1499368346573,0.09820706492713782,0.341374837872892,-0.9262226291294726
1499368346605,0.08551155870908644,0.3325856412603949,-0.9486839093614101
1499368346637,0.09332417792019498,0.3272144655527578,-0.9428244449530787
1499368346669,0.089906157015335,0.31696040283817783,-0.9301289387350269
1499368346701,0.09478904402227784,0.31891355764095497,-0.9428244449530787
1499368346732,0.089906157015335,0.3179369802395664,-0.9369649805447469
1499368346764,0.09674219882505497,0.3096360723277636,-0.9608911268787672
1499368346796,0.09185931181811213,0.3184252689402607,-0.9481956206607158
1499368346828,0.08599984740978073,0.3208667124437321,-0.9530785076676587
1499368346860,0.0986953536278321,0.31989013504234354,-0.9306172274357212
1499368346891,0.09332417792019498,0.32526131074998066,-0.9228046082246126
1499368346922,0.08404669260700359,0.32819104295414636,-0.9262226291294726
1499368346954,0.08941786831464071,0.31647211413748355,-0.9584496833752958
1499368346986,0.09674219882505497,0.3174486915388721,-0.9486839093614101
1499368347018,0.09137102311741785,0.31696040283817783,-0.9472190432593273
1499368347050,0.09723048752574925,0.3179369802395664,-0.9662623025864043
1499368347082,0.09332417792019498,0.3067063401235979,-0.9345235370412754
1499368347114,0.08746471351186358,0.3125658045319293,-0.9369649805447469
1499368347146,0.09381246662088927,0.31110093842984643,-0.96919203479057
1499368347178,0.08892957961394643,0.3115892271305407,-0.9613794155794615
1499368347209,0.09430075532158355,0.3125658045319293,-0.9477073319600215
1499368347241,0.08892957961394643,0.312077515831235,-0.9442893110551616
1499368347273,0.09430075532158355,0.312077515831235,-0.9457541771572444
1499368347305,0.10016021972991496,0.3237964446478978,-0.9389181353475244
1499368347337,0.09527733272297212,0.31989013504234354,-0.9232928969253069
1499368347369,0.10113679713130352,0.312077515831235,-0.9525902189669644
1499368347401,0.09478904402227784,0.32233157854581496,-0.9325703822384983
1499368347433,0.08648813611047501,0.3125658045319293,-0.9511253528648815
1499368347465,0.089906157015335,0.31940184634164925,-0.9203631647211412
1499368347497,0.09430075532158355,0.3096360723277636,-0.9447775997558558
1499368347528,0.10064850843060924,0.32233157854581496,-0.9267109178301669
1499368347560,0.10943770504310635,0.31940184634164925,-0.9359884031433583
1499368347592,0.09332417792019498,0.31110093842984643,-0.9384298466468302
1499368347624,0.08941786831464071,0.3203784237430378,-0.9491721980621044
1499368347656,0.09381246662088927,0.30768291752498644,-0.9564965285725187
1499368347688,0.09137102311741785,0.3242847333485921,-0.9540550850690472
1499368347720,0.10406652933546923,0.31696040283817783,-0.9203631647211412
1499368347752,0.08941786831464071,0.31598382543678927,-0.9452658884565501
1499368347784,0.0986953536278321,0.31598382543678927,-0.9442893110551616
1499368347815,0.09332417792019498,0.33112077515831206,-0.9481956206607158
1499368347847,0.09478904402227784,0.3115892271305407,-0.9306172274357212
1499368347879,0.09234760051880642,0.3218432898451207,-0.9081559472037841
1499368347911,0.0928358892195007,0.3174486915388721,-0.9613794155794615
1499368347943,0.09137102311741785,0.31989013504234354,-0.9818875410086214
1499368347975,0.09332417792019498,0.3389333943694206,-0.906202792401007
1499368348007,0.09039444571602928,0.3457694361791406,-0.8783703364614328
1499368348039,0.09674219882505497,0.33112077515831206,-0.9604028381780729
1499368348071,0.08892957961394643,0.31598382543678927,-0.9496604867627987
1499368348102,0.09039444571602928,0.3091477836270693,-0.9389181353475244
1499368348134,0.07916380560006075,0.2993820096131836,-0.9970244907301442
1499368348165,0.08404669260700359,0.31012436102845786,-0.9271992065308612
1499368348197,0.09527733272297212,0.32574959945067494,-0.9452658884565501
1499368348229,0.09234760051880642,0.3262378881513692,-0.9594262607766844
1499368348261,0.0928358892195007,0.32916762035553493,-0.9281757839322498
1499368348293,0.09185931181811213,0.3203784237430378,-0.9550316624704358
1499368348324,0.0869764248111693,0.32281986724650924,-0.9335469596398869
1499368348356,0.10113679713130352,0.31989013504234354,-0.9594262607766844
1499368348388,0.08355840390630931,0.31354238193331785,-0.906202792401007
1499368348420,0.0869764248111693,0.30475318532082074,-0.9638208590829329
1499368348452,0.08648813611047501,0.3028000305180436,-0.9682154573891815
1499368348484,0.07525749599450648,0.3057297627222093,-0.9057145037003127
1499368348516,0.08599984740978073,0.29303425650415793,-0.9496604867627987
1499368348548,0.08502327000839216,0.2940108339055465,-0.9394064240482187
1499368348580,0.07281605249103507,0.29205767910276936,-0.9330586709391926
1499368348611,0.08453498130769788,0.2881513694972151,-0.9521019302662701
1499368348643,0.07428091859311792,0.26569008926527804,-0.9984893568322271
1499368348675,0.07916380560006075,0.2671549553673609,-0.9477073319600215
1499368348707,0.07916380560006075,0.26227206836041805,-0.9804226749065386
1499368348739,0.07721065079728362,0.2525062943465324,-0.9643091477836272
1499368348771,0.07916380560006075,0.2456702525368124,-0.9516136415655758
1499368348803,0.08258182650492074,0.2485999847409781,-0.97261005569543
1499368348835,0.0747692072938122,0.239810788128481,-0.9623559929808501
1499368348867,0.08160524910353217,0.2368810559243153,-0.9848172732127871
1499368348898,0.08307011520561502,0.243228809033341,-0.9955596246280614
1499368348930,0.089906157015335,0.2461585412375067,-0.9774929427023729
1499368348962,0.08404669260700359,0.2456702525368124,-0.9496604867627987
1499368348994,0.08355840390630931,0.25690089265278093,-0.9677271686884872
1499368349026,0.08355840390630931,0.25397116044861523,-0.9447775997558558
1499368349058,0.08746471351186358,0.24664682993820097,-0.9701686121919586
1499368349090,0.07379262989242363,0.2456702525368124,-0.9779812314030671
1499368349122,0.07721065079728362,0.24713511863889526,-0.9706569008926529
1499368349154,0.06793316548409223,0.243228809033341,-0.9613794155794615
1499368349185,0.0776989394979779,0.2490882734416724,-0.9647974364843215
1499368349217,0.07281605249103507,0.239810788128481,-0.9799343862058443
1499368349249,0.06988632028686936,0.24811169604028382,-0.950148775463493
1499368349281,0.06695658808270366,0.2427405203326467,-0.9823758297093157
1499368349313,0.0718394750896465,0.2485999847409781,-0.9667505912870986
1499368349345,0.07525749599450648,0.2456702525368124,-0.9750514991989014
1499368349377,0.07379262989242363,0.2485999847409781,-0.950148775463493
1499368349409,0.08209353780422646,0.2515297169451438,-0.96577401388571
1499368349439,0.07672236209658934,0.2520180056458381,-0.9955596246280614
1499368349471,0.08307011520561502,0.2695963988708323,-0.9721217669947357
1499368349503,0.07623407339589505,0.2847333485923551,-0.9887235828183414
1499368349535,0.0869764248111693,0.308659494926375,-0.98628213931487
1499368349567,0.08453498130769788,0.3452811474784463,-0.8402838178072787
1499368349599,0.09967193102922067,0.35016403448538913,-0.8729991607537957
1499368349631,0.11139085984588348,0.34039826047150346,-0.9975127794308385
1499368349663,0.09137102311741785,0.34039826047150346,-0.8773937590600442
1499368349694,0.08648813611047501,0.3091477836270693,-0.902784771496147
1499368349726,0.09185931181811213,0.2642252231631952,-0.9530785076676587
1499368349758,0.08307011520561502,0.2368810559243153,-1.234332799267567
1499368349790,0.08599984740978073,0.2705729762722209,-0.9101091020065613
1499368349822,0.05474937056534657,0.3145189593347064,-0.8500495918211644
1499368349854,0.08599984740978073,0.3486991683833063,-0.9940947585259785
1499368349886,0.0806286717021436,0.3814145113298242,-0.8866712443732356
1499368349918,0.09527733272297212,0.36481269550621764,-0.7655756466010528
1499368349950,0.10162508583199781,0.35553521019302625,-1.0204623483634698
1499368349981,0.09820706492713782,0.3242847333485921,-0.9774929427023729
1499368350013,0.08404669260700359,0.3267261768520635,-0.9037613488975356
1499368350045,0.08404669260700359,0.315495536736095,-0.9750514991989014
1499368350077,0.08160524910353217,0.31989013504234354,-0.9291523613336383
1499368350109,0.0718394750896465,0.30426489662012646,-0.9193865873197526
1499368350141,0.06305027847714939,0.28961623559929794,-0.9271992065308612
1499368350173,0.06060883497367797,0.25592431525139236,-0.9613794155794615
1499368350205,0.06256198977645511,0.21979095140001537,-1.0014190890363928
1499368350237,-0.07855344472419334,0.3696955825131605,-1.0985885404745557
1499368350268,0.028381780727855244,0.1763332570382241,-0.9804226749065386
1499368350300,-0.01361104753185316,0.1079728389410235,-1.039505607690547
1499368350332,0.07281605249103507,0.13385214007782142,-0.9989776455329213
1499368350364,0.05279621576256943,0.17145037003128127,-0.98970016021973
1499368350396,0.05035477225909801,0.17584496833752983,-1.0082551308461127
1499368350428,0.05133134966048658,0.18170443274586123,-0.9926298924238957
1499368350460,0.044007019150072324,0.18072785534447267,-0.97261005569543
1499368350492,0.06060883497367797,0.17779812314030696,-0.9809109636072328
1499368350523,0.055725947966735134,0.18072785534447267,-0.9975127794308385
1499368350555,0.049378194857709445,0.17584496833752983,-1.00337224383917
1499368350587,0.05865568017090084,0.1826810101472498,-0.9779812314030671
1499368350619,0.059632257572289404,0.18658731975280407,-0.9867704280155642
1499368350651,0.04888990615701516,0.1919584954604412,-0.98628213931487
1499368350683,0.053284504463263715,0.19049362935835834,-0.96919203479057
1499368350714,0.053284504463263715,0.20172426947432687,-0.9936064698252842
1499368350746,0.04986648355840373,0.21197833218890683,-0.9857938506141757
1499368350777,0.047913328755626594,0.22223239490348679,-0.9662623025864043
1499368350809,0.05865568017090084,0.21979095140001537,-0.9799343862058443
1499368350841,0.06305027847714939,0.23541618982223245,-0.9608911268787672
1499368350873,0.05621423666742942,0.23932249942778672,-0.9540550850690472
1499368350905,0.05816739147020655,0.24078736552986957,-0.9774929427023729
1499368350937,0.05914396887159512,0.22955672541390104,-0.9579613946746015
1499368350969,0.06353856717784367,0.23932249942778672,-0.9716334782940415
1499368351001,0.06060883497367797,0.22711528191042962,-0.9770046540016786
1499368351033,0.0659800106813151,0.22906843671320676,-0.9750514991989014
1499368351064,0.05816739147020655,0.22320897230487535,-0.9564965285725187
1499368351096,0.06207370107576082,0.2124666208896011,-0.9906767376211185
1499368351128,0.0508430609597923,0.21783779659723823,-0.9682154573891815
1499368351160,0.06500343327992653,0.22125581750209822,-0.9638208590829329
1499368351192,0.05621423666742942,0.2129549095902954,-0.9833524071107043
1499368351224,0.05474937056534657,0.2188143739986268,-0.9560082398718244
1499368351256,0.06256198977645511,0.22418554970626392,-0.9774929427023729
1499368351288,0.05816739147020655,0.21832608529793252,-0.9813992523079271
1499368351319,0.06500343327992653,0.22906843671320676,-0.97602807660029
1499368351351,0.06012054627298369,0.22272068360418107,-0.9696803234912643
1499368351383,0.06353856717784367,0.22223239490348679,-0.9560082398718244
1499368351415,0.05865568017090084,0.21490806439307253,-1.0072785534447242
1499368351447,0.05865568017090084,0.22369726100556964,-0.9848172732127871
1499368351479,0.06060883497367797,0.239810788128481,-0.9613794155794615
1499368351511,0.05523765926604085,0.24811169604028382,-0.87006942854963
1499368351543,0.06256198977645511,0.25983062485694663,-0.9359884031433583
1499368351575,0.07281605249103507,0.23883421072709243,-1.0404821850919355
1499368351606,0.0567025253681237,0.23248645761806674,-0.9140154116121155
1499368351638,0.07232776379034078,0.2188143739986268,-1.0072785534447242
1499368351670,0.061097123674372256,0.21393148699168396,-0.9740749217975129
1499368351702,0.061097123674372256,0.2246738384069582,-0.9843289845120928
1499368351734,0.05914396887159512,0.2188143739986268,-0.9706569008926529
1499368351766,0.06207370107576082,0.21832608529793252,-0.9530785076676587
1499368351798,0.05474937056534657,0.2153963530937668,-1.0043488212405585
1499368351830,0.05474937056534657,0.2007476920729383,-0.9682154573891815
1499368351861,0.055725947966735134,0.2129549095902954,-0.9740749217975129
1499368351893,0.053284504463263715,0.203677424277104,-0.9843289845120928
1499368351925,0.049378194857709445,0.2095368886854354,-0.9765163653009843
1499368351957,0.05279621576256943,0.20270084687571543,-0.9618677042801558
1499368351988,0.057190814068817986,0.20465400167849257,-1.0106965743495842
1499368352020,0.04986648355840373,0.20318913557640972,-0.9613794155794615
1499368352052,0.053284504463263715,0.20465400167849257,-0.9735866330968186
1499368352084,0.06353856717784367,0.203677424277104,-0.9706569008926529
1499368352116,0.05865568017090084,0.207095445181964,-0.9662623025864043
1499368352147,0.053284504463263715,0.20904859998474112,-0.9784695201037614
1499368352179,0.06207370107576082,0.21490806439307253,-0.9799343862058443
1499368352211,0.05865568017090084,0.20270084687571543,-0.9735866330968186
1499368352243,0.05621423666742942,0.20416571297779829,-0.9950713359273671
1499368352275,0.05230792706187515,0.20416571297779829,-0.9662623025864043
1499368352307,0.06451514457923224,0.20416571297779829,-0.9740749217975129
1499368352339,0.05914396887159512,0.2153963530937668,-0.9579613946746015
1499368352371,0.05865568017090084,0.23150988021667818,-0.953566796368353
1499368352402,0.053284504463263715,0.23199816891737246,-0.9779812314030671
1499368352434,0.06353856717784367,0.23248645761806674,-0.9574731059739072
1499368352466,0.06256198977645511,0.2490882734416724,-0.9853055619134814
1499368352498,0.0718394750896465,0.2695963988708323,-0.9442893110551616
1499368352530,0.0718394750896465,0.2788738841840237,-0.9438010223544673
1499368352562,0.0806286717021436,0.2871747920958265,-1.0141145952544441
1499368352594,0.07135118638895221,0.3067063401235979,-0.8793469138628214
1499368352626,0.07721065079728362,0.3096360723277636,-0.932082093537804
1499368352658,0.07867551689936647,0.30133516441596075,-0.9823758297093157
1499368352689,0.08307011520561502,0.30133516441596075,-0.9120622568093384
1499368352721,0.07672236209658934,0.3028000305180436,-0.950148775463493
1499368352753,0.07330434119172935,0.29498741130693507,-0.9652857251850158
1499368352785,0.07525749599450648,0.2940108339055465,-0.9516136415655758
1499368352817,0.0869764248111693,0.2886396581979094,-0.9560082398718244
1499368352849,0.08648813611047501,0.2881513694972151,-0.96919203479057
1499368352881,0.08355840390630931,0.28082703898680084,-0.9428244449530787
1499368352913,0.0869764248111693,0.2940108339055465,-0.9569848172732129
1499368352944,0.08355840390630931,0.28912794689860366,-0.9633325703822386
1499368352976,0.09039444571602928,0.28668650339513224,-0.9408712901503016
1499368353008,0.08307011520561502,0.29547570000762935,-0.9633325703822386
1499368353040,0.09234760051880642,0.2886396581979094,-0.9384298466468302
1499368353072,0.08648813611047501,0.2944991226062408,-0.9511253528648815
1499368353104,0.08795300221255786,0.28912794689860366,-0.9550316624704358
1499368353136,0.0928358892195007,0.2822919050888837,-0.9403830014496073
1499368353168,0.0986953536278321,0.2857099259937437,-0.9472190432593273
1499368353200,0.0869764248111693,0.2871747920958265,-0.9682154573891815
1499368353231,0.0806286717021436,0.2842450598916608,-0.9647974364843215
1499368353262,0.08892957961394643,0.2881513694972151,-0.950148775463493
1499368353294,0.08404669260700359,0.2881513694972151,-0.9408712901503016
1499368353326,0.0928358892195007,0.28961623559929794,-0.9564965285725187
1499368353358,0.08014038300144932,0.28082703898680084,-0.9633325703822386
1499368353390,0.08599984740978073,0.2813153276874951,-0.9496604867627987
1499368353422,0.09478904402227784,0.29205767910276936,-0.9521019302662701
1499368353454,0.09039444571602928,0.29010452429999223,-0.943312733653773
1499368353486,0.09039444571602928,0.2886396581979094,-0.9408712901503016
1499368353517,0.08502327000839216,0.28278019378957797,-0.9647974364843215
1499368353549,0.09088273441672357,0.29498741130693507,-0.953566796368353
1499368353581,0.09039444571602928,0.2852216372930494,-0.9633325703822386
1499368353613,0.10016021972991496,0.28033875028610655,-0.9540550850690472
1499368353645,0.09674219882505497,0.2783855954833294,-0.9564965285725187
1499368353677,0.09039444571602928,0.28375677119096654,-0.9584496833752958
1499368353709,0.08795300221255786,0.28278019378957797,-0.9555199511711301
1499368353741,0.09674219882505497,0.2818036163881894,-0.9550316624704358
1499368353772,0.0869764248111693,0.2847333485923551,-0.9540550850690472
1499368353804,0.08160524910353217,0.28278019378957797,-0.9516136415655758
1499368353836,0.09185931181811213,0.27740901808194085,-0.9574731059739072
1499368353868,0.08844129091325215,0.2764324406805523,-0.9472190432593273
1499368353900,0.08941786831464071,0.28375677119096654,-0.9442893110551616
1499368353932,0.09430075532158355,0.27985046158541227,-0.9574731059739072
1499368353964,0.08746471351186358,0.2847333485923551,-0.946730754558633
1499368353996,0.089906157015335,0.2788738841840237,-0.950148775463493
1499368354027,0.09478904402227784,0.27692072938124657,-0.9623559929808501
1499368354059,0.10162508583199781,0.28278019378957797,-0.9643091477836272
1499368354091,0.09381246662088927,0.2822919050888837,-0.953566796368353
1499368354123,0.08648813611047501,0.28668650339513224,-0.9604028381780729
1499368354155,0.08892957961394643,0.2822919050888837,-0.9540550850690472
1499368354187,0.10064850843060924,0.272526131074998,-0.9540550850690472
1499368354219,0.09137102311741785,0.2876630807965208,-0.9442893110551616
1499368354251,0.09088273441672357,0.2847333485923551,-0.9745632104982072
1499368354282,0.08941786831464071,0.2705729762722209,-0.9530785076676587
1499368354314,0.0869764248111693,0.28375677119096654,-0.9564965285725187
1499368354346,0.09674219882505497,0.2754558632791637,-0.9530785076676587
1499368354378,0.08892957961394643,0.2857099259937437,-0.9457541771572444
1499368354410,0.08892957961394643,0.27789730678263513,-0.9716334782940415
1499368354442,0.08307011520561502,0.2730144197756923,-0.9618677042801558
1499368354474,0.09039444571602928,0.2764324406805523,-0.9452658884565501
1499368354506,0.089906157015335,0.27789730678263513,-0.9599145494773786
1499368354537,0.08941786831464071,0.28278019378957797,-0.9662623025864043
1499368354569,0.08209353780422646,0.27447928587777515,-0.9530785076676587
1499368354600,0.08941786831464071,0.28278019378957797,-0.9584496833752958
1499368354632,0.09185931181811213,0.27985046158541227,-0.9525902189669644
1499368354664,0.09820706492713782,0.279362172884718,-0.9608911268787672
1499368354696,0.09185931181811213,0.27203784237430373,-0.9560082398718244
1499368354728,0.09381246662088927,0.27399099717708086,-0.9584496833752958
1499368354760,0.08795300221255786,0.269108110170138,-0.9594262607766844
1499368354792,0.09137102311741785,0.27985046158541227,-0.9418478675516901
1499368354824,0.09137102311741785,0.27789730678263513,-0.9770046540016786
1499368354855,0.08795300221255786,0.2822919050888837,-0.9516136415655758
1499368354887,0.09185931181811213,0.2813153276874951,-0.9486839093614101
1499368354919,0.08551155870908644,0.27154955367360945,-0.9623559929808501
1499368354951,0.09332417792019498,0.2783855954833294,-0.9560082398718244
1499368354983,0.09478904402227784,0.2730144197756923,-0.9486839093614101
1499368355015,0.08599984740978073,0.28375677119096654,-0.939894712748913
1499368355047,0.08648813611047501,0.28326848249027226,-0.9594262607766844
1499368355079,0.09478904402227784,0.28082703898680084,-0.9599145494773786
1499368355110,0.09332417792019498,0.2735027084763866,-0.9525902189669644
1499368355142,0.09088273441672357,0.279362172884718,-0.9594262607766844
1499368355174,0.09478904402227784,0.279362172884718,-0.953566796368353
1499368355206,0.0928358892195007,0.2881513694972151,-0.9442893110551616
1499368355238,0.09625391012436069,0.28326848249027226,-0.953566796368353
1499368355270,0.09478904402227784,0.27496757457846943,-0.950148775463493
1499368355302,0.09039444571602928,0.27692072938124657,-0.9574731059739072
1499368355334,0.09234760051880642,0.28375677119096654,-0.9774929427023729
1499368355365,0.08307011520561502,0.27496757457846943,-0.9574731059739072
1499368355397,0.08648813611047501,0.27496757457846943,-0.935500114442664
1499368355429,0.08502327000839216,0.2822919050888837,-0.9574731059739072
1499368355461,0.08453498130769788,0.2857099259937437,-0.9408712901503016
1499368355493,0.0957656214236664,0.2764324406805523,-0.9525902189669644
1499368355525,0.08746471351186358,0.28375677119096654,-0.9530785076676587
1499368355557,0.09381246662088927,0.28375677119096654,-0.9555199511711301
1499368355589,0.08746471351186358,0.2818036163881894,-0.9511253528648815
1499368355621,0.09234760051880642,0.279362172884718,-0.953566796368353
1499368355652,0.09039444571602928,0.27789730678263513,-0.9682154573891815
1499368355684,0.08453498130769788,0.2881513694972151,-0.9428244449530787
1499368355716,0.08209353780422646,0.28082703898680084,-0.9613794155794615
1499368355748,0.09137102311741785,0.2852216372930494,-0.9564965285725187
1499368355780,0.08404669260700359,0.27985046158541227,-0.9521019302662701
1499368355811,0.08111696040283789,0.28082703898680084,-0.9516136415655758
1499368355843,0.089906157015335,0.279362172884718,-0.9662623025864043
1499368355875,0.08648813611047501,0.27789730678263513,-0.9418478675516901
1499368355907,0.09234760051880642,0.2822919050888837,-0.9525902189669644
1499368355938,0.09332417792019498,0.28375677119096654,-0.9647974364843215
1499368355970,0.0957656214236664,0.2764324406805523,-0.9599145494773786
1499368356002,0.08453498130769788,0.27692072938124657,-0.9481956206607158
1499368356034,0.09088273441672357,0.2857099259937437,-0.950148775463493
1499368356066,0.089906157015335,0.28375677119096654,-0.9540550850690472
1499368356098,0.08941786831464071,0.2876630807965208,-0.939894712748913
1499368356130,0.08892957961394643,0.27789730678263513,-0.9550316624704358
1499368356162,0.09088273441672357,0.2783855954833294,-0.9599145494773786
1499368356193,0.08551155870908644,0.279362172884718,-0.9701686121919586
1499368356225,0.09430075532158355,0.2842450598916608,-0.9511253528648815
1499368356257,0.08746471351186358,0.27985046158541227,-0.9560082398718244
1499368356289,0.08844129091325215,0.27692072938124657,-0.9574731059739072
1499368356321,0.09478904402227784,0.28033875028610655,-0.9574731059739072
1499368356353,0.09527733272297212,0.2813153276874951,-0.9472190432593273
1499368356385,0.09723048752574925,0.28033875028610655,-0.97602807660029
1499368356417,0.08892957961394643,0.2754558632791637,-0.9472190432593273
1499368356448,0.07818722819867219,0.28033875028610655,-0.9618677042801558
1499368356480,0.09527733272297212,0.27740901808194085,-0.9555199511711301
1499368356512,0.09185931181811213,0.2818036163881894,-0.9579613946746015
1499368356544,0.09478904402227784,0.27789730678263513,-0.9447775997558558
1499368356576,0.08404669260700359,0.2735027084763866,-0.9555199511711301
1499368356608,0.08404669260700359,0.272526131074998,-0.96577401388571
1499368356640,0.09137102311741785,0.279362172884718,-0.9457541771572444
1499368356672,0.08844129091325215,0.2735027084763866,-0.96919203479057
1499368356703,0.09527733272297212,0.2730144197756923,-0.9447775997558558
1499368356735,0.08453498130769788,0.2730144197756923,-0.9472190432593273
1499368356767,0.09430075532158355,0.2695963988708323,-0.9569848172732129
1499368356799,0.08795300221255786,0.2705729762722209,-0.9516136415655758
1499368356831,0.09185931181811213,0.26861982146944374,-0.96577401388571
1499368356863,0.08258182650492074,0.26520180056458376,-0.9525902189669644
1499368356895,0.08795300221255786,0.27106126497291516,-0.9613794155794615
1499368356927,0.089906157015335,0.2661783779659723,-0.9687037460898758
1499368356958,0.08502327000839216,0.26569008926527804,-0.9569848172732129
1499368356990,0.09478904402227784,0.2647135118638895,-0.9633325703822386
1499368357022,0.089906157015335,0.2603189135576409,-0.96577401388571
1499368357054,0.09332417792019498,0.2632486457618066,-0.9608911268787672
1499368357085,0.0806286717021436,0.2573891813534752,-0.9599145494773786
1499368357117,0.08746471351186358,0.25397116044861523,-0.9618677042801558
1499368357149,0.07916380560006075,0.26861982146944374,-0.9511253528648815
1499368357181,0.0869764248111693,0.25299458304722666,-0.9599145494773786
1499368357213,0.09381246662088927,0.25348287174792095,-0.9540550850690472
1499368357245,0.08795300221255786,0.25299458304722666,-0.9667505912870986
1499368357277,0.08258182650492074,0.2525062943465324,-0.9662623025864043
1499368357308,0.089906157015335,0.26276035706111234,-0.9594262607766844
1499368357340,0.08746471351186358,0.25934233615625235,-0.9574731059739072
1499368357372,0.08307011520561502,0.2456702525368124,-0.97261005569543
1499368357404,0.09088273441672357,0.2544594491493095,-0.96577401388571
1499368357436,0.08404669260700359,0.2427405203326467,-0.9613794155794615
1499368357468,0.08746471351186358,0.24078736552986957,-0.9662623025864043
1499368357500,0.08453498130769788,0.25055313954375524,-0.9677271686884872
1499368357532,0.08795300221255786,0.23541618982223245,-0.9721217669947357
1499368357563,0.08404669260700359,0.25006485084306096,-0.97602807660029
1499368357595,0.09381246662088927,0.2456702525368124,-0.9804226749065386
1499368357627,0.089906157015335,0.25055313954375524,-0.9530785076676587
1499368357659,0.08453498130769788,0.25006485084306096,-0.9721217669947357
1499368357691,0.08404669260700359,0.25592431525139236,-0.9560082398718244
1499368357723,0.08551155870908644,0.2554360265506981,-0.9730983443961243
1499368357755,0.08307011520561502,0.2549477378500038,-0.9789578088044557
1499368357787,0.08599984740978073,0.24957656214236668,-0.9647974364843215
1499368357818,0.08648813611047501,0.25397116044861523,-0.9633325703822386
1499368357850,0.08795300221255786,0.2515297169451438,-0.9540550850690472
1499368357882,0.07867551689936647,0.25592431525139236,-0.9491721980621044
1499368357914,0.08892957961394643,0.2456702525368124,-0.9735866330968186
1499368357946,0.08453498130769788,0.24664682993820097,-0.9608911268787672
1499368357978,0.08551155870908644,0.24762340733958954,-0.9809109636072328
1499368358010,0.0928358892195007,0.24029907682917528,-0.9486839093614101
1499368358042,0.09088273441672357,0.2525062943465324,-0.9579613946746015
1499368358073,0.08551155870908644,0.2461585412375067,-0.9652857251850158
1499368358105,0.08209353780422646,0.2544594491493095,-0.9662623025864043
1499368358137,0.09527733272297212,0.25299458304722666,-0.9652857251850158
1499368358169,0.08502327000839216,0.24420538643472955,-0.96577401388571
1499368358201,0.08307011520561502,0.2554360265506981,-0.9701686121919586
1499368358233,0.09088273441672357,0.24713511863889526,-0.9550316624704358
1499368358265,0.08404669260700359,0.24664682993820097,-0.9618677042801558
1499368358297,0.09185931181811213,0.2520180056458381,-0.950148775463493
1499368358328,0.08355840390630931,0.24762340733958954,-0.9662623025864043
1499368358360,0.08746471351186358,0.25055313954375524,-0.9716334782940415
1499368358391,0.08599984740978073,0.24469367513542384,-0.9569848172732129
1499368358423,0.08404669260700359,0.2554360265506981,-0.9481956206607158
1499368358455,0.09185931181811213,0.25348287174792095,-0.9643091477836272
1499368358487,0.08404669260700359,0.2603189135576409,-0.9579613946746015
1499368358519,0.089906157015335,0.25983062485694663,-0.9618677042801558
1499368358551,0.08941786831464071,0.25397116044861523,-0.9623559929808501
1499368358583,0.0869764248111693,0.2603189135576409,-0.9701686121919586
1499368358615,0.08307011520561502,0.2490882734416724,-0.96919203479057
1499368358646,0.08795300221255786,0.25983062485694663,-0.9638208590829329
1499368358678,0.08502327000839216,0.25592431525139236,-0.9496604867627987
1499368358710,0.09039444571602928,0.2510414282444495,-0.9872587167162585
1499368358742,0.08355840390630931,0.25690089265278093,-0.9638208590829329
1499368358774,0.08502327000839216,0.2549477378500038,-0.9667505912870986
1499368358806,0.09332417792019498,0.25641260395208665,-0.9643091477836272
1499368358838,0.08404669260700359,0.2520180056458381,-0.97261005569543
1499368358870,0.08746471351186358,0.25641260395208665,-0.96919203479057
1499368358901,0.0869764248111693,0.24957656214236668,-0.9613794155794615
1499368358933,0.08307011520561502,0.25934233615625235,-0.9584496833752958
1499368358965,0.0869764248111693,0.2544594491493095,-0.9701686121919586
1499368358997,0.09088273441672357,0.2573891813534752,-0.9696803234912643
1499368359029,0.09478904402227784,0.25934233615625235,-0.9511253528648815
1499368359061,0.09430075532158355,0.25641260395208665,-0.9511253528648815
1499368359093,0.08941786831464071,0.2608072022583352,-0.9481956206607158
1499368359125,0.09771877622644354,0.2544594491493095,-0.9784695201037614
1499368359156,0.08844129091325215,0.25641260395208665,-0.9701686121919586
1499368359188,0.08258182650492074,0.2608072022583352,-0.9599145494773786
1499368359220,0.08648813611047501,0.25055313954375524,-0.9604028381780729
1499368359252,0.08551155870908644,0.2583657587548638,-0.9667505912870986
1499368359284,0.09185931181811213,0.2525062943465324,-0.9579613946746015
1499368359316,0.08648813611047501,0.26178377965972377,-0.9608911268787672
1499368359348,0.08941786831464071,0.2666666666666666,-0.9662623025864043
1499368359380,0.08892957961394643,0.2603189135576409,-0.9491721980621044
1499368359411,0.08453498130769788,0.2612954909590295,-0.9633325703822386
1499368359443,0.08551155870908644,0.26276035706111234,-0.9574731059739072
1499368359475,0.08551155870908644,0.2612954909590295,-0.9638208590829329
1499368359507,0.08844129091325215,0.25983062485694663,-0.9574731059739072
1499368359539,0.09137102311741785,0.26178377965972377,-0.9594262607766844
1499368359571,0.08844129091325215,0.26227206836041805,-0.9560082398718244
1499368359603,0.0928358892195007,0.2544594491493095,-0.9457541771572444
1499368359634,0.09332417792019498,0.26520180056458376,-0.9516136415655758
1499368359666,0.08746471351186358,0.25983062485694663,-0.9555199511711301
1499368359698,0.089906157015335,0.2612954909590295,-0.9652857251850158
1499368359729,0.08941786831464071,0.25983062485694663,-0.9623559929808501
1499368359761,0.0928358892195007,0.2573891813534752,-0.9550316624704358
1499368359793,0.0806286717021436,0.2661783779659723,-0.9472190432593273
1499368359825,0.08844129091325215,0.2608072022583352,-0.9516136415655758
1499368359857,0.08111696040283789,0.25934233615625235,-0.9594262607766844
1499368359889,0.08404669260700359,0.2554360265506981,-0.9472190432593273
1499368359921,0.08746471351186358,0.2647135118638895,-0.9682154573891815
1499368359953,0.09039444571602928,0.26569008926527804,-0.9721217669947357
1499368359984,0.08746471351186358,0.2583657587548638,-0.9599145494773786
1499368360016,0.08892957961394643,0.2578774700541695,-0.9560082398718244
1499368360048,0.08795300221255786,0.2608072022583352,-0.9682154573891815
1499368360080,0.08892957961394643,0.25690089265278093,-0.9447775997558558
1499368360112,0.09381246662088927,0.2583657587548638,-0.9706569008926529
1499368360144,0.09381246662088927,0.2642252231631952,-0.9569848172732129
1499368360176,0.09430075532158355,0.2583657587548638,-0.9574731059739072
1499368360208,0.08502327000839216,0.26227206836041805,-0.9525902189669644
1499368360239,0.08502327000839216,0.26227206836041805,-0.9618677042801558
1499368360271,0.09088273441672357,0.2647135118638895,-0.9525902189669644
1499368360303,0.08941786831464071,0.2603189135576409,-0.9608911268787672
1499368360335,0.089906157015335,0.26178377965972377,-0.9682154573891815
1499368360367,0.09674219882505497,0.2578774700541695,-0.9745632104982072
1499368360399,0.08599984740978073,0.2603189135576409,-0.9452658884565501
1499368360431,0.08502327000839216,0.25983062485694663,-0.9569848172732129
1499368360462,0.08941786831464071,0.2510414282444495,-0.9491721980621044
1499368360494,0.08404669260700359,0.25348287174792095,-0.9813992523079271
1499368360526,0.09088273441672357,0.2510414282444495,-0.9516136415655758
1499368360558,0.08307011520561502,0.2573891813534752,-0.9569848172732129
1499368360590,0.08648813611047501,0.25348287174792095,-0.9745632104982072
1499368360622,0.08844129091325215,0.2510414282444495,-0.9574731059739072
1499368360654,0.08014038300144932,0.2544594491493095,-0.9525902189669644
1499368360686,0.08844129091325215,0.2578774700541695,-0.9599145494773786
1499368360717,0.09381246662088927,0.25592431525139236,-0.9550316624704358
1499368360749,0.08551155870908644,0.2549477378500038,-0.96577401388571
1499368360781,0.09088273441672357,0.2510414282444495,-0.96919203479057
1499368360813,0.09625391012436069,0.25299458304722666,-0.96577401388571
1499368360845,0.08551155870908644,0.25690089265278093,-0.9569848172732129
1499368360877,0.08941786831464071,0.25006485084306096,-0.9516136415655758
1499368360908,0.08648813611047501,0.2573891813534752,-0.9540550850690472
1499368360940,0.08941786831464071,0.25592431525139236,-0.9638208590829329
1499368360972,0.09039444571602928,0.2520180056458381,-0.96577401388571
1499368361004,0.08892957961394643,0.25299458304722666,-0.9721217669947357
1499368361036,0.07818722819867219,0.25055313954375524,-0.9770046540016786
1499368361067,0.09088273441672357,0.24957656214236668,-0.9540550850690472
1499368361099,0.08599984740978073,0.25006485084306096,-0.9516136415655758
1499368361131,0.089906157015335,0.2490882734416724,-0.9633325703822386
1499368361163,0.09039444571602928,0.2456702525368124,-0.9745632104982072
1499368361195,0.09039444571602928,0.25690089265278093,-0.9750514991989014
1499368361227,0.0928358892195007,0.25299458304722666,-0.9682154573891815
1499368361259,0.089906157015335,0.25983062485694663,-0.9662623025864043
1499368361290,0.08404669260700359,0.2456702525368124,-0.9623559929808501
1499368361322,0.089906157015335,0.25055313954375524,-0.9613794155794615
1499368361354,0.08844129091325215,0.25299458304722666,-0.9594262607766844
1499368361386,0.09723048752574925,0.25397116044861523,-0.9623559929808501
1499368361418,0.0869764248111693,0.2554360265506981,-0.9687037460898758
1499368361450,0.08941786831464071,0.24469367513542384,-0.9550316624704358
1499368361482,0.08551155870908644,0.2456702525368124,-0.9716334782940415
1499368361514,0.089906157015335,0.24713511863889526,-0.9584496833752958
1499368361545,0.08111696040283789,0.2525062943465324,-0.9770046540016786
1499368361577,0.09674219882505497,0.2520180056458381,-0.9706569008926529
1499368361609,0.09185931181811213,0.24518196383611812,-0.9608911268787672
1499368361641,0.08453498130769788,0.24811169604028382,-0.9643091477836272
1499368361673,0.09039444571602928,0.2525062943465324,-0.9667505912870986
1499368361705,0.0869764248111693,0.25983062485694663,-0.9745632104982072
1499368361737,0.09234760051880642,0.2485999847409781,-0.9818875410086214
1499368361769,0.08209353780422646,0.2525062943465324,-0.9555199511711301
1499368361800,0.09381246662088927,0.2485999847409781,-0.9638208590829329
1499368361832,0.0928358892195007,0.24127565423056385,-0.9706569008926529
1499368361864,0.0957656214236664,0.25592431525139236,-0.9652857251850158
1499368361896,0.08502327000839216,0.2461585412375067,-0.9779812314030671
1499368361928,0.08892957961394643,0.2510414282444495,-0.96577401388571
1499368361960,0.09039444571602928,0.24469367513542384,-0.9721217669947357
1499368361992,0.09381246662088927,0.2461585412375067,-0.97261005569543
1499368362024,0.07867551689936647,0.2515297169451438,-0.9740749217975129
1499368362055,0.0928358892195007,0.24469367513542384,-0.9677271686884872
1499368362087,0.09185931181811213,0.24762340733958954,-0.9560082398718244
1499368362119,0.09234760051880642,0.2510414282444495,-0.98286411841001
1499368362151,0.089906157015335,0.2490882734416724,-0.9750514991989014
1499368362182,0.08795300221255786,0.2427405203326467,-0.9623559929808501
1499368362214,0.08355840390630931,0.2427405203326467,-0.9740749217975129
1499368362246,0.0869764248111693,0.2510414282444495,-0.9569848172732129
1499368362278,0.08551155870908644,0.24176394293125814,-0.9428244449530787
1499368362310,0.08746471351186358,0.24420538643472955,-0.9623559929808501
1499368362342,0.09478904402227784,0.25397116044861523,-0.9745632104982072
1499368362373,0.09137102311741785,0.24469367513542384,-0.9643091477836272
1499368362405,0.08892957961394643,0.24762340733958954,-0.9540550850690472
1499368362437,0.0869764248111693,0.24469367513542384,-0.9706569008926529
1499368362469,0.0869764248111693,0.23785763332570387,-0.9716334782940415
1499368362501,0.08551155870908644,0.2456702525368124,-0.9696803234912643
1499368362533,0.08502327000839216,0.25006485084306096,-0.9594262607766844
1499368362565,0.08599984740978073,0.243228809033341,-0.9784695201037614
1499368362597,0.08746471351186358,0.25641260395208665,-0.9525902189669644
1499368362628,0.08648813611047501,0.2485999847409781,-0.97602807660029
1499368362660,0.0957656214236664,0.2456702525368124,-0.9677271686884872
1499368362692,0.09234760051880642,0.24078736552986957,-0.9652857251850158
1499368362724,0.08355840390630931,0.24127565423056385,-0.96919203479057
1499368362756,0.08453498130769788,0.2544594491493095,-0.9677271686884872
1499368362788,0.08844129091325215,0.24078736552986957,-0.9618677042801558
1499368362820,0.0869764248111693,0.24469367513542384,-0.9604028381780729
1499368362852,0.08892957961394643,0.24127565423056385,-0.97261005569543
1499368362883,0.089906157015335,0.24420538643472955,-0.9779812314030671
1499368362915,0.08551155870908644,0.2520180056458381,-0.9677271686884872
1499368362947,0.08404669260700359,0.25397116044861523,-0.9525902189669644
1499368362979,0.09332417792019498,0.2485999847409781,-0.9604028381780729
1499368363011,0.08307011520561502,0.2461585412375067,-0.96577401388571
1499368363043,0.08844129091325215,0.2490882734416724,-0.9716334782940415
1499368363075,0.09039444571602928,0.24664682993820097,-0.9569848172732129
1499368363106,0.08746471351186358,0.24957656214236668,-0.9638208590829329
1499368363138,0.09723048752574925,0.2510414282444495,-0.9765163653009843
1499368363170,0.08502327000839216,0.2461585412375067,-0.9618677042801558
1499368363202,0.089906157015335,0.24420538643472955,-0.9613794155794615
1499368363234,0.089906157015335,0.2510414282444495,-0.9696803234912643
1499368363266,0.09088273441672357,0.2490882734416724,-0.9652857251850158
1499368363298,0.08892957961394643,0.2456702525368124,-0.9623559929808501
1499368363330,0.08746471351186358,0.24664682993820097,-0.9608911268787672
1499368363361,0.08941786831464071,0.2510414282444495,-0.9569848172732129
1499368363393,0.09674219882505497,0.2510414282444495,-0.96577401388571
1499368363425,0.09039444571602928,0.2427405203326467,-0.9696803234912643
1499368363456,0.08111696040283789,0.2544594491493095,-0.9779812314030671
1499368363488,0.09723048752574925,0.25055313954375524,-0.9667505912870986
1499368363520,0.09918364232852639,0.25397116044861523,-0.9633325703822386
1499368363552,0.07965209430075504,0.2525062943465324,-0.9516136415655758
1499368363584,0.09137102311741785,0.2525062943465324,-0.9730983443961243
1499368363616,0.09088273441672357,0.2520180056458381,-0.9696803234912643
1499368363648,0.09137102311741785,0.24957656214236668,-0.9833524071107043
1499368363680,0.08453498130769788,0.24762340733958954,-0.9560082398718244
1499368363711,0.08892957961394643,0.25397116044861523,-0.9574731059739072
1499368363743,0.09039444571602928,0.2510414282444495,-0.9813992523079271
1499368363775,0.08307011520561502,0.24957656214236668,-0.9442893110551616
1499368363807,0.09185931181811213,0.2510414282444495,-0.9618677042801558
1499368363839,0.08892957961394643,0.23834592202639815,-0.96577401388571
1499368363871,0.07330434119172935,0.24713511863889526,-0.9550316624704358
1499368363903,0.08795300221255786,0.24811169604028382,-0.9745632104982072
1499368363934,0.08355840390630931,0.24957656214236668,-0.9706569008926529
1499368363966,0.08551155870908644,0.24518196383611812,-0.9682154573891815
1499368363998,0.08746471351186358,0.25055313954375524,-0.9701686121919586
1499368364030,0.08599984740978073,0.25690089265278093,-0.9784695201037614
1499368364062,0.08014038300144932,0.2525062943465324,-0.96919203479057
1499368364094,0.08209353780422646,0.24518196383611812,-0.9687037460898758
1499368364126,0.08258182650492074,0.25641260395208665,-0.9560082398718244
1499368364158,0.09088273441672357,0.24664682993820097,-0.9750514991989014
1499368364189,0.08648813611047501,0.2525062943465324,-0.9618677042801558
1499368364221,0.08746471351186358,0.2485999847409781,-0.9618677042801558
1499368364253,0.0869764248111693,0.24713511863889526,-0.9687037460898758
1499368364285,0.08892957961394643,0.24371709773403527,-0.9579613946746015
1499368364317,0.08599984740978073,0.25299458304722666,-0.9647974364843215
1499368364349,0.08599984740978073,0.24664682993820097,-0.9452658884565501
1499368364381,0.09234760051880642,0.24957656214236668,-0.96919203479057
1499368364413,0.08844129091325215,0.2544594491493095,-0.9594262607766844
1499368364444,0.08453498130769788,0.24664682993820097,-0.9818875410086214
1499368364476,0.08795300221255786,0.2427405203326467,-0.9662623025864043
1499368364508,0.09430075532158355,0.24762340733958954,-0.9716334782940415
1499368364540,0.09088273441672357,0.25299458304722666,-0.9569848172732129
1499368364572,0.08599984740978073,0.24176394293125814,-0.9652857251850158
1499368364604,0.08355840390630931,0.25348287174792095,-0.9569848172732129
1499368364636,0.09039444571602928,0.24762340733958954,-0.96577401388571
1499368364667,0.09381246662088927,0.24713511863889526,-0.9564965285725187
1499368364699,0.09088273441672357,0.24029907682917528,-0.9555199511711301
1499368364731,0.09039444571602928,0.2525062943465324,-0.9638208590829329
1499368364763,0.09088273441672357,0.24469367513542384,-0.9662623025864043
1499368364794,0.08599984740978073,0.24518196383611812,-0.9599145494773786
1499368364826,0.08941786831464071,0.2578774700541695,-0.96919203479057
1499368364858,0.08746471351186358,0.24762340733958954,-0.9701686121919586
1499368364890,0.08355840390630931,0.2549477378500038,-0.9604028381780729
1499368364922,0.07965209430075504,0.24518196383611812,-0.9652857251850158
1499368364954,0.08355840390630931,0.25006485084306096,-0.9716334782940415
1499368364986,0.08258182650492074,0.25299458304722666,-0.9667505912870986
1499368365017,0.08453498130769788,0.24518196383611812,-0.9608911268787672
1499368365049,0.08648813611047501,0.23883421072709243,-0.9608911268787672
1499368365081,0.09039444571602928,0.24762340733958954,-0.97602807660029
1499368365113,0.08404669260700359,0.2515297169451438,-0.9525902189669644
1499368365145,0.09039444571602928,0.2456702525368124,-0.9618677042801558
1499368365177,0.08648813611047501,0.24469367513542384,-0.9564965285725187
1499368365209,0.08648813611047501,0.239810788128481,-0.9789578088044557
1499368365241,0.09430075532158355,0.2485999847409781,-0.9472190432593273
1499368365272,0.09088273441672357,0.2520180056458381,-0.9662623025864043
1499368365304,0.08404669260700359,0.24762340733958954,-0.9696803234912643
1499368365336,0.09430075532158355,0.2485999847409781,-0.9613794155794615
1499368365368,0.08160524910353217,0.25299458304722666,-0.9623559929808501
1499368365400,0.08404669260700359,0.2485999847409781,-0.9530785076676587
1499368365432,0.09185931181811213,0.2525062943465324,-0.96919203479057
1499368365464,0.09039444571602928,0.25055313954375524,-0.9569848172732129
1499368365495,0.09381246662088927,0.24225223163195242,-0.9599145494773786
1499368365527,0.09137102311741785,0.24762340733958954,-0.9584496833752958
1499368365559,0.09185931181811213,0.2490882734416724,-0.946730754558633
1499368365591,0.08404669260700359,0.24469367513542384,-0.9735866330968186
1499368365623,0.09039444571602928,0.23834592202639815,-0.9521019302662701
1499368365655,0.08795300221255786,0.24469367513542384,-0.9770046540016786
1499368365687,0.08160524910353217,0.24371709773403527,-0.96577401388571
1499368365719,0.08746471351186358,0.2515297169451438,-0.9740749217975129
1499368365750,0.08941786831464071,0.24664682993820097,-0.9730983443961243
1499368365782,0.09332417792019498,0.24664682993820097,-0.9594262607766844
1499368365814,0.08892957961394643,0.24029907682917528,-0.9584496833752958
1499368365846,0.08892957961394643,0.24420538643472955,-0.9550316624704358
1499368365878,0.09332417792019498,0.24127565423056385,-0.9779812314030671
1499368365910,0.08795300221255786,0.24078736552986957,-0.9652857251850158
1499368365942,0.09185931181811213,0.23883421072709243,-0.97602807660029
1499368365974,0.08551155870908644,0.24664682993820097,-0.9579613946746015
1499368366005,0.09088273441672357,0.24420538643472955,-0.9604028381780729
1499368366037,0.08502327000839216,0.24029907682917528,-0.9496604867627987
1499368366069,0.09039444571602928,0.24225223163195242,-0.9682154573891815
1499368366100,0.08453498130769788,0.24078736552986957,-0.9770046540016786
1499368366132,0.09039444571602928,0.24029907682917528,-0.9799343862058443
1499368366164,0.0869764248111693,0.24762340733958954,-0.9638208590829329
1499368366196,0.09381246662088927,0.2485999847409781,-0.9667505912870986
1499368366228,0.09527733272297212,0.24225223163195242,-0.96919203479057
1499368366260,0.08307011520561502,0.23834592202639815,-0.9765163653009843
1499368366292,0.09088273441672357,0.243228809033341,-0.9716334782940415
1499368366323,0.09332417792019498,0.23883421072709243,-0.9804226749065386
1499368366355,0.0869764248111693,0.23883421072709243,-0.9594262607766844
1499368366387,0.08892957961394643,0.24518196383611812,-0.9472190432593273
1499368366419,0.08160524910353217,0.24469367513542384,-0.9652857251850158
1499368366451,0.08502327000839216,0.243228809033341,-0.9569848172732129
1499368366483,0.0869764248111693,0.2368810559243153,-0.9706569008926529
1499368366515,0.08014038300144932,0.2334630350194553,-0.9770046540016786
1499368366547,0.0928358892195007,0.24127565423056385,-0.9735866330968186
1499368366578,0.08892957961394643,0.24664682993820097,-0.9721217669947357
1499368366610,0.08844129091325215,0.239810788128481,-0.9452658884565501
1499368366642,0.09820706492713782,0.24029907682917528,-0.9721217669947357
1499368366674,0.0869764248111693,0.24811169604028382,-0.9696803234912643
1499368366706,0.08746471351186358,0.24811169604028382,-0.9604028381780729
1499368366738,0.08892957961394643,0.24469367513542384,-0.9818875410086214
1499368366770,0.09625391012436069,0.2456702525368124,-0.9623559929808501
1499368366801,0.08551155870908644,0.24176394293125814,-0.9687037460898758
1499368366833,0.09088273441672357,0.2485999847409781,-0.9481956206607158
1499368366865,0.08746471351186358,0.243228809033341,-0.9662623025864043
1499368366897,0.08795300221255786,0.24371709773403527,-0.9652857251850158
1499368366929,0.08404669260700359,0.24518196383611812,-0.9594262607766844
1499368366961,0.0986953536278321,0.23932249942778672,-0.9716334782940415
1499368366993,0.08258182650492074,0.25006485084306096,-0.9701686121919586
1499368367024,0.08941786831464071,0.2515297169451438,-0.9604028381780729
1499368367056,0.09137102311741785,0.24518196383611812,-0.9677271686884872
1499368367088,0.089906157015335,0.2490882734416724,-0.9638208590829329
1499368367120,0.09771877622644354,0.2490882734416724,-0.9584496833752958
1499368367152,0.09088273441672357,0.24371709773403527,-0.9784695201037614
1499368367184,0.0957656214236664,0.2456702525368124,-0.9662623025864043
1499368367216,0.08355840390630931,0.24469367513542384,-0.9638208590829329
1499368367248,0.08941786831464071,0.24127565423056385,-0.9677271686884872
1499368367279,0.08599984740978073,0.2510414282444495,-0.9701686121919586
1499368367311,0.07965209430075504,0.2544594491493095,-0.9540550850690472
1499368367343,0.08844129091325215,0.23932249942778672,-0.9662623025864043
1499368367375,0.08453498130769788,0.2461585412375067,-0.9706569008926529
1499368367406,0.09430075532158355,0.24713511863889526,-0.9652857251850158
1499368367438,0.09234760051880642,0.2427405203326467,-0.9677271686884872
1499368367470,0.09185931181811213,0.2490882734416724,-0.9730983443961243
1499368367502,0.08258182650492074,0.24371709773403527,-0.9765163653009843
1499368367534,0.09234760051880642,0.23785763332570387,-0.9667505912870986
1499368367566,0.0869764248111693,0.24518196383611812,-0.9677271686884872
1499368367598,0.08941786831464071,0.24225223163195242,-0.9696803234912643
1499368367629,0.0806286717021436,0.2461585412375067,-0.9696803234912643
1499368367661,0.08941786831464071,0.25397116044861523,-0.9613794155794615
1499368367693,0.08209353780422646,0.25641260395208665,-0.9604028381780729
1499368367725,0.09478904402227784,0.24713511863889526,-0.9599145494773786
1499368367757,0.09234760051880642,0.23883421072709243,-0.9892118715190357
1499368367789,0.08502327000839216,0.24371709773403527,-0.9652857251850158
1499368367821,0.08648813611047501,0.239810788128481,-0.9638208590829329
1499368367853,0.09137102311741785,0.2427405203326467,-0.9687037460898758
1499368367884,0.08551155870908644,0.24713511863889526,-0.9687037460898758
1499368367916,0.089906157015335,0.2461585412375067,-0.9608911268787672
1499368367948,0.08209353780422646,0.2515297169451438,-0.9638208590829329
1499368367980,0.09088273441672357,0.239810788128481,-0.9735866330968186
1499368368012,0.08209353780422646,0.24713511863889526,-0.97602807660029
1499368368044,0.0957656214236664,0.24225223163195242,-0.9594262607766844
1499368368076,0.09039444571602928,0.2456702525368124,-0.9677271686884872
1499368368107,0.089906157015335,0.23736934462500958,-0.9599145494773786
1499368368139,0.08892957961394643,0.2461585412375067,-0.9525902189669644
1499368368171,0.08892957961394643,0.2461585412375067,-0.9682154573891815
1499368368203,0.08648813611047501,0.239810788128481,-0.9599145494773786
1499368368235,0.09332417792019498,0.24811169604028382,-0.9569848172732129
1499368368267,0.09137102311741785,0.23541618982223245,-0.9638208590829329
1499368368299,0.08355840390630931,0.24127565423056385,-0.9647974364843215
1499368368331,0.07916380560006075,0.23883421072709243,-0.9540550850690472
1499368368362,0.0869764248111693,0.23785763332570387,-0.9779812314030671
1499368368394,0.08795300221255786,0.23736934462500958,-0.9818875410086214
1499368368426,0.089906157015335,0.23785763332570387,-0.9477073319600215
1499368368458,0.0806286717021436,0.2461585412375067,-0.9643091477836272
1499368368490,0.08599984740978073,0.243228809033341,-0.9667505912870986
1499368368522,0.07867551689936647,0.24420538643472955,-0.9608911268787672
1499368368553,0.08014038300144932,0.2485999847409781,-0.9638208590829329
1499368368585,0.09137102311741785,0.24225223163195242,-0.9682154573891815
1499368368617,0.09332417792019498,0.22858014801251247,-0.9608911268787672
1499368368649,0.09137102311741785,0.24225223163195242,-0.9809109636072328
1499368368681,0.08648813611047501,0.23590447852292673,-0.9789578088044557
1499368368712,0.08746471351186358,0.24029907682917528,-0.9716334782940415
1499368368744,0.0869764248111693,0.24029907682917528,-0.9750514991989014
1499368368776,0.09478904402227784,0.24469367513542384,-0.9457541771572444
1499368368808,0.08648813611047501,0.2510414282444495,-0.9623559929808501
1499368368840,0.08746471351186358,0.24176394293125814,-0.9560082398718244
1499368368872,0.09430075532158355,0.23932249942778672,-0.9633325703822386
1499368368904,0.09185931181811213,0.2490882734416724,-0.9599145494773786
1499368368936,0.08258182650492074,0.24420538643472955,-0.950148775463493
1499368368967,0.089906157015335,0.24176394293125814,-0.9643091477836272
1499368368999,0.08648813611047501,0.23199816891737246,-0.9770046540016786
1499368369031,0.08258182650492074,0.2368810559243153,-0.9682154573891815
1499368369063,0.09185931181811213,0.23834592202639815,-0.9599145494773786
1499368369095,0.09137102311741785,0.23932249942778672,-0.9750514991989014
1499368369127,0.08599984740978073,0.24420538643472955,-0.9633325703822386
1499368369159,0.0957656214236664,0.23834592202639815,-0.96577401388571
1499368369190,0.08502327000839216,0.24371709773403527,-0.9599145494773786
1499368369222,0.08209353780422646,0.24127565423056385,-0.96919203479057
1499368369254,0.08307011520561502,0.24371709773403527,-0.9745632104982072
1499368369286,0.08404669260700359,0.24176394293125814,-0.9745632104982072
1499368369318,0.08551155870908644,0.23541618982223245,-0.9613794155794615
1499368369350,0.08599984740978073,0.24420538643472955,-0.946730754558633
1499368369382,0.08892957961394643,0.2461585412375067,-0.9560082398718244
1499368369413,0.09430075532158355,0.23883421072709243,-0.9765163653009843
1499368369445,0.08307011520561502,0.23590447852292673,-0.9765163653009843
1499368369477,0.08844129091325215,0.23883421072709243,-0.9574731059739072
1499368369509,0.0957656214236664,0.24469367513542384,-0.9677271686884872
1499368369541,0.08502327000839216,0.23883421072709243,-0.9608911268787672
1499368369573,0.09820706492713782,0.24029907682917528,-0.9784695201037614
1499368369605,0.08746471351186358,0.23736934462500958,-0.9643091477836272
1499368369637,0.0806286717021436,0.24127565423056385,-0.9892118715190357
1499368369668,0.09088273441672357,0.23199816891737246,-0.9638208590829329
1499368369700,0.08599984740978073,0.23932249942778672,-0.9784695201037614
1499368369732,0.0806286717021436,0.2456702525368124,-0.9735866330968186
1499368369764,0.08795300221255786,0.23785763332570387,-0.9618677042801558
1499368369796,0.08941786831464071,0.23834592202639815,-0.9550316624704358
1499368369827,0.08746471351186358,0.24371709773403527,-0.9608911268787672
1499368369859,0.08795300221255786,0.2456702525368124,-0.9613794155794615
1499368369891,0.08844129091325215,0.24029907682917528,-0.9652857251850158
1499368369923,0.09039444571602928,0.23736934462500958,-0.9770046540016786
1499368369955,0.08795300221255786,0.23492790112153816,-0.9647974364843215
1499368369987,0.08746471351186358,0.24078736552986957,-0.9774929427023729
1499368370018,0.08209353780422646,0.23443961242084388,-0.9633325703822386
1499368370050,0.09430075532158355,0.24029907682917528,-0.9770046540016786
1499368370082,0.08355840390630931,0.2456702525368124,-0.9530785076676587
1499368370114,0.09234760051880642,0.23492790112153816,-0.9613794155794615
1499368370146,0.09527733272297212,0.24371709773403527,-0.9872587167162585
1499368370178,0.09332417792019498,0.24029907682917528,-0.9730983443961243
1499368370210,0.08453498130769788,0.23004501411459533,-0.9662623025864043
1499368370241,0.09430075532158355,0.23443961242084388,-0.9745632104982072
1499368370273,0.08941786831464071,0.22711528191042962,-0.9613794155794615
1499368370305,0.08892957961394643,0.239810788128481,-0.9638208590829329
1499368370337,0.07867551689936647,0.2280918593118182,-0.9687037460898758
1499368370369,0.07721065079728362,0.2305333028152896,-0.9765163653009843
1499368370401,0.08844129091325215,0.239810788128481,-0.9662623025864043
1499368370433,0.0869764248111693,0.22906843671320676,-0.9608911268787672
1499368370465,0.0928358892195007,0.23639276722362101,-0.97261005569543
1499368370496,0.09088273441672357,0.23541618982223245,-0.9716334782940415
1499368370528,0.089906157015335,0.239810788128481,-0.9662623025864043
1499368370560,0.08551155870908644,0.2368810559243153,-0.9730983443961243
1499368370592,0.09039444571602928,0.2368810559243153,-0.9643091477836272
1499368370624,0.08648813611047501,0.23492790112153816,-0.9740749217975129
1499368370656,0.07867551689936647,0.23248645761806674,-0.9682154573891815
1499368370688,0.08746471351186358,0.23639276722362101,-0.9735866330968186
1499368370719,0.08599984740978073,0.24762340733958954,-0.9638208590829329
1499368370751,0.08941786831464071,0.2276035706111239,-0.9677271686884872
1499368370783,0.08551155870908644,0.23248645761806674,-0.9765163653009843
1499368370815,0.09137102311741785,0.24420538643472955,-0.96919203479057
1499368370847,0.0957656214236664,0.24127565423056385,-0.9613794155794615
1499368370879,0.08551155870908644,0.24176394293125814,-0.9623559929808501
1499368370911,0.08453498130769788,0.2427405203326467,-0.9652857251850158
1499368370942,0.09039444571602928,0.23248645761806674,-0.9550316624704358
1499368370974,0.07672236209658934,0.23736934462500958,-0.9618677042801558
1499368371006,0.08795300221255786,0.23199816891737246,-0.9613794155794615
1499368371038,0.08502327000839216,0.2427405203326467,-0.9638208590829329
1499368371070,0.08795300221255786,0.22906843671320676,-0.9564965285725187
1499368371101,0.08404669260700359,0.2310215915159839,-0.9682154573891815
1499368371133,0.09137102311741785,0.23736934462500958,-0.9809109636072328
1499368371165,0.08892957961394643,0.24713511863889526,-0.9623559929808501
1499368371197,0.0869764248111693,0.24127565423056385,-0.9604028381780729
1499368371229,0.0869764248111693,0.23639276722362101,-0.9682154573891815
1499368371261,0.089906157015335,0.2427405203326467,-0.9579613946746015
1499368371293,0.08502327000839216,0.23883421072709243,-0.9789578088044557
1499368371324,0.0928358892195007,0.2339513237201496,-0.9633325703822386
1499368371356,0.09185931181811213,0.23639276722362101,-0.9608911268787672
1499368371388,0.08892957961394643,0.24176394293125814,-0.9574731059739072
1499368371420,0.08648813611047501,0.24029907682917528,-0.9716334782940415
1499368371452,0.08844129091325215,0.243228809033341,-0.97602807660029
1499368371484,0.09039444571602928,0.24127565423056385,-0.9618677042801558
1499368371516,0.08746471351186358,0.23736934462500958,-0.9721217669947357
1499368371547,0.08404669260700359,0.24078736552986957,-0.9750514991989014
1499368371579,0.09039444571602928,0.23932249942778672,-0.9730983443961243
1499368371611,0.08844129091325215,0.23639276722362101,-0.9574731059739072
1499368371643,0.08355840390630931,0.23834592202639815,-0.9525902189669644
1499368371675,0.08355840390630931,0.23639276722362101,-0.9721217669947357
1499368371707,0.08844129091325215,0.23834592202639815,-0.9701686121919586
1499368371739,0.08941786831464071,0.24518196383611812,-0.9735866330968186
1499368371770,0.08453498130769788,0.23297474631876103,-0.9677271686884872
1499368371802,0.08648813611047501,0.23248645761806674,-0.9579613946746015
1499368371834,0.0957656214236664,0.23590447852292673,-0.9618677042801558
1499368371866,0.08307011520561502,0.2427405203326467,-0.950148775463493
1499368371898,0.08746471351186358,0.2461585412375067,-0.9745632104982072
1499368371930,0.08258182650492074,0.23932249942778672,-0.9872587167162585
1499368371962,0.08307011520561502,0.2368810559243153,-0.96577401388571
1499368371993,0.0957656214236664,0.23834592202639815,-0.9687037460898758
1499368372025,0.09332417792019498,0.24176394293125814,-0.9833524071107043
1499368372057,0.089906157015335,0.239810788128481,-0.9652857251850158
1499368372089,0.0869764248111693,0.23590447852292673,-0.9677271686884872
1499368372121,0.08795300221255786,0.239810788128481,-0.9599145494773786
1499368372153,0.09137102311741785,0.23248645761806674,-0.9687037460898758
1499368372185,0.08355840390630931,0.22613870450904106,-0.9647974364843215
1499368372217,0.08941786831464071,0.23834592202639815,-0.9853055619134814
1499368372248,0.08307011520561502,0.23199816891737246,-0.9652857251850158
1499368372280,0.09674219882505497,0.23541618982223245,-0.9452658884565501
1499368372312,0.08160524910353217,0.23443961242084388,-0.9687037460898758
1499368372344,0.08648813611047501,0.2334630350194553,-0.9618677042801558
1499368372376,0.08209353780422646,0.23443961242084388,-0.98628213931487
1499368372407,0.08844129091325215,0.23883421072709243,-0.9569848172732129
1499368372439,0.08795300221255786,0.24225223163195242,-0.9618677042801558
1499368372471,0.09381246662088927,0.23590447852292673,-0.9594262607766844
1499368372503,0.08453498130769788,0.22906843671320676,-0.9550316624704358
1499368372535,0.08209353780422646,0.24176394293125814,-0.9882352941176471
1499368372567,0.0928358892195007,0.24029907682917528,-0.9721217669947357
1499368372599,0.08892957961394643,0.23590447852292673,-0.9633325703822386
1499368372630,0.08892957961394643,0.23736934462500958,-0.9564965285725187
1499368372662,0.089906157015335,0.24029907682917528,-0.9623559929808501
1499368372694,0.08355840390630931,0.2334630350194553,-0.96577401388571
1499368372726,0.09430075532158355,0.23932249942778672,-0.9647974364843215
1499368372758,0.09185931181811213,0.22711528191042962,-0.9662623025864043
1499368372790,0.08209353780422646,0.22223239490348679,-0.9633325703822386
1499368372822,0.08551155870908644,0.22906843671320676,-0.9599145494773786
1499368372853,0.08941786831464071,0.24078736552986957,-0.96919203479057
1499368372885,0.08892957961394643,0.24371709773403527,-0.9638208590829329
1499368372917,0.08599984740978073,0.2310215915159839,-0.9560082398718244
1499368372949,0.0869764248111693,0.2339513237201496,-0.9730983443961243
1499368372981,0.08111696040283789,0.22858014801251247,-0.9613794155794615
1499368373013,0.0928358892195007,0.23150988021667818,-0.9599145494773786
1499368373045,0.08892957961394643,0.23004501411459533,-0.950148775463493
1499368373076,0.0869764248111693,0.23297474631876103,-0.9740749217975129
1499368373108,0.0806286717021436,0.23199816891737246,-0.9643091477836272
1499368373140,0.08892957961394643,0.23297474631876103,-0.9789578088044557
1499368373172,0.08795300221255786,0.2276035706111239,-0.9652857251850158
1499368373204,0.09332417792019498,0.23883421072709243,-0.96577401388571
1499368373236,0.09039444571602928,0.2339513237201496,-0.950148775463493
1499368373268,0.08111696040283789,0.23248645761806674,-0.96577401388571
1499368373300,0.08648813611047501,0.2305333028152896,-0.9579613946746015
1499368373331,0.09332417792019498,0.22565041580834677,-0.9623559929808501
1499368373363,0.08795300221255786,0.23199816891737246,-0.9677271686884872
1499368373395,0.08892957961394643,0.2276035706111239,-0.9643091477836272
1499368373427,0.08746471351186358,0.2251621271076525,-0.9701686121919586
1499368373459,0.08307011520561502,0.23248645761806674,-0.9848172732127871
1499368373491,0.09381246662088927,0.22906843671320676,-0.9652857251850158
1499368373523,0.09478904402227784,0.22711528191042962,-0.9550316624704358
1499368373554,0.08453498130769788,0.2276035706111239,-0.97602807660029
1499368373586,0.09088273441672357,0.22906843671320676,-0.9643091477836272
1499368373618,0.08307011520561502,0.2339513237201496,-0.9599145494773786
1499368373650,0.08502327000839216,0.23492790112153816,-0.9774929427023729
1499368373682,0.08453498130769788,0.2276035706111239,-0.9599145494773786
1499368373713,0.07965209430075504,0.2276035706111239,-0.97261005569543
1499368373745,0.08844129091325215,0.23004501411459533,-0.9633325703822386
1499368373777,0.08941786831464071,0.23443961242084388,-0.97602807660029
1499368373809,0.08599984740978073,0.2276035706111239,-0.9750514991989014
1499368373841,0.09137102311741785,0.2280918593118182,-0.9667505912870986
1499368373873,0.089906157015335,0.2310215915159839,-0.97261005569543
1499368373905,0.08941786831464071,0.2251621271076525,-0.9804226749065386
1499368373936,0.08014038300144932,0.23150988021667818,-0.9730983443961243
1499368373968,0.08746471351186358,0.23541618982223245,-0.9740749217975129
1499368374000,0.09039444571602928,0.21783779659723823,-0.9735866330968186
1499368374032,0.08160524910353217,0.22662699320973534,-0.9784695201037614
1499368374064,0.08844129091325215,0.22223239490348679,-0.9701686121919586
1499368374096,0.09234760051880642,0.22906843671320676,-0.9716334782940415
1499368374128,0.09723048752574925,0.2276035706111239,-0.9604028381780729
1499368374159,0.08502327000839216,0.22662699320973534,-0.9765163653009843
1499368374191,0.08892957961394643,0.22662699320973534,-0.9706569008926529
1499368374223,0.08014038300144932,0.22565041580834677,-0.9809109636072328
1499368374255,0.08453498130769788,0.2368810559243153,-0.9633325703822386
1499368374287,0.09137102311741785,0.2280918593118182,-0.9608911268787672
1499368374319,0.08453498130769788,0.22955672541390104,-0.97602807660029
1499368374351,0.08746471351186358,0.2310215915159839,-0.96577401388571
1499368374382,0.08111696040283789,0.2217441062027925,-0.9652857251850158
1499368374414,0.08892957961394643,0.2310215915159839,-0.9623559929808501
1499368374446,0.08599984740978073,0.2251621271076525,-0.96919203479057
1499368374478,0.08648813611047501,0.22662699320973534,-0.9813992523079271
1499368374510,0.09332417792019498,0.23150988021667818,-0.9481956206607158
1499368374542,0.09332417792019498,0.23443961242084388,-0.9730983443961243
1499368374574,0.09137102311741785,0.22955672541390104,-0.9735866330968186
1499368374605,0.08453498130769788,0.2217441062027925,-0.9721217669947357
1499368374637,0.0869764248111693,0.22418554970626392,-0.9608911268787672
1499368374669,0.089906157015335,0.2334630350194553,-0.9765163653009843
1499368374701,0.08795300221255786,0.22711528191042962,-0.9765163653009843
1499368374733,0.08355840390630931,0.23004501411459533,-0.9701686121919586
1499368374765,0.08648813611047501,0.2339513237201496,-0.9843289845120928
1499368374797,0.09332417792019498,0.22711528191042962,-0.9677271686884872
1499368374829,0.07867551689936647,0.22711528191042962,-0.9643091477836272
1499368374860,0.08551155870908644,0.22272068360418107,-0.9560082398718244
1499368374892,0.08404669260700359,0.2368810559243153,-0.9916533150225071
1499368374924,0.08502327000839216,0.22955672541390104,-0.9721217669947357
1499368374956,0.09967193102922067,0.22711528191042962,-0.9765163653009843
1499368374988,0.08453498130769788,0.2339513237201496,-0.9569848172732129
1499368375019,0.08551155870908644,0.2280918593118182,-0.9730983443961243
