Timestamp (ms),Accel X (g),Accel Y (g),Accel Z (g)
1499369096909,-0.11175707637140464,-0.8179446097505152,-0.5137407492179751
1499369096925,-0.10797283894102394,-0.8303959716182194,-0.5237506675822079
1499369096941,-0.1077286945906768,-0.8415045395590144,-0.5200885023270008
1499369096957,-0.10931563286793322,-0.8422369726100558,-0.5369344625009536
1499369096973,-0.10431067368581681,-0.8484626535439079,-0.5452353704127564
1499369096989,-0.10040436408026254,-0.8883802548256656,-0.5459678034637978
1499369097005,-0.10125886930647754,-0.9223163195239183,-0.5463340199893185
1499369097021,-0.10174715800717182,-0.9331807431143662,-0.5497520408941785
1499369097037,-0.10711833371480894,-0.9145037003128098,-0.5545128557259478
1499369097053,-0.11041428244449536,-0.8720225833524071,-0.5629358358129246
1499369097069,-0.10589761196307323,-0.8345464255741208,-0.5543907835507742
1499369097085,-0.10614175631342038,-0.7992675669489584,-0.5496299687190049
1499369097101,-0.10626382848859395,-0.7748531319142442,-0.5193560692759593
1499369097117,-0.10003814755474183,-0.758129243915465,-0.47736324101625094
1499369097133,-0.09613183794918756,-0.7468986037994965,-0.4581979095140003
1499369097149,-0.09039444571602973,-0.7503166247043564,-0.4414740215152211
1499369097165,-0.09088273441672401,-0.7637445639734493,-0.45050736247806533
1499369097181,-0.08892957961394687,-0.7859616998550392,-0.4741893644617381
1499369097197,-0.08270389868009476,-0.8065918974593727,-0.5008010986495766
1499369097213,-0.0812390325780119,-0.8183108262760359,-0.5429159990844585
1499369097229,-0.0800183108262762,-0.8151369497215231,-0.5652552071412225
1499369097245,-0.07965209430075548,-0.8072022583352405,-0.5603723201342792
1499369097261,-0.07989623865110262,-0.8001220721751734,-0.5447470817120621
1499369097277,-0.07965209430075548,-0.792553597314412,-0.5033646143282215
1499369097293,-0.07953002212558191,-0.7910887312123291,-0.4702830548561838
1499369097309,-0.07989623865110262,-0.7956054016937513,-0.4561226825360496
1499369097325,-0.07769893949797835,-0.8095216296635384,-0.4480659189745939
1499369097341,-0.07843137254901977,-0.8273441672388802,-0.46515602349889384
1499369097357,-0.07965209430075548,-0.8419928282597087,-0.4967727168688487
1499369097373,-0.08014038300144977,-0.8507820248722058,-0.5261921110856793
1499369097389,-0.07843137254901977,-0.8512703135729001,-0.5458457312886242
1499369097405,-0.0783093003738462,-0.8487067978942551,-0.5498741130693521
1499369097421,-0.08197146562905333,-0.8440680552376594,-0.5383993286030364
1499369097437,-0.08160524910353262,-0.8378423743038073,-0.5176470588235293
1499369097453,-0.08404669260700404,-0.8294193942168309,-0.48786144808117804
1499369097469,-0.07965209430075548,-0.8230716411078052,-0.4633249408712903
1499369097485,-0.08392462043183047,-0.8198977645532923,-0.4507515068284125
1499369097501,-0.08441290913252475,-0.8272220950637066,-0.4531929503318839
1499369097517,-0.08441290913252475,-0.8426031891355765,-0.463691157396811
1499369097533,-0.08331425955596261,-0.8557869840543222,-0.4791943236438545
1499369097549,-0.08258182650492119,-0.8688487067978943,-0.4986037994964523
1499369097565,-0.0812390325780119,-0.8770275425345235,-0.5152056153200579
1499369097581,-0.08136110475318548,-0.8819104295414664,-0.5215533684290836
1499369097597,-0.08331425955596261,-0.8839856565194171,-0.5144731822690165
1499369097613,-0.08526741435873975,-0.8848401617456321,-0.49665064469367515
1499369097629,-0.08770885786221116,-0.8773937590600442,-0.47345693141069667
1499369097645,-0.08404669260700404,-0.8690928511482414,-0.44403753719386607
1499369097661,-0.08075074387731762,-0.8635996032654307,-0.4357366292820628
1499369097677,-0.07086289768825837,-0.8651865415426871,-0.42963302052338426
1499369097693,-0.06707866025787768,-0.8736095216296635,-0.43866636148622895
1499369097709,-0.06707866025787768,-0.8775158312352178,-0.46564431219958813
1499369097725,-0.0640268558785384,-0.8789806973373007,-0.48236820019836735
1499369097741,-0.06366063935301769,-0.8788586251621271,-0.49152361333638517
1499369097757,-0.062439917601281536,-0.87690547035935,-0.4909132524605173
1499369097773,-0.058533607995727266,-0.8739757381551843,-0.4733348592355231
1499369097789,-0.05914396887159512,-0.8681162737468529,-0.4485542076752882
1499369097805,-0.05938811322194226,-0.8673838406958114,-0.42121004043640786
1499369097821,-0.06182955672541368,-0.8689707789730678,-0.39948119325551223
1499369097837,-0.06341649500267055,-0.8719005111772336,-0.3908140688181887
1499369097853,-0.06500343327992697,-0.8756847486076142,-0.3906919966430151
1499369097869,-0.06463721675440626,-0.8778820477607385,-0.4072938124666208
1499369097885,-0.06463721675440626,-0.8806897077897307,-0.4273136491950864
1499369097901,-0.06195162890058725,-0.8820325017166399,-0.45246051728084247
1499369097917,-0.06414892805371197,-0.8845960173952849,-0.47052719920653097
1499369097933,-0.06329442282749698,-0.8828870069428549,-0.47443350881208524
1499369097949,-0.06439307240405912,-0.8791027695124742,-0.46564431219958813
1499369097965,-0.06182955672541368,-0.8745860990310521,-0.44623483634699035
1499369097981,-0.05780117494468584,-0.8716563668268864,-0.4276798657206071
1499369097997,-0.054627298390172996,-0.8695811398489357,-0.4113221942473486
1499369098013,-0.05218585488670158,-0.8714122224765393,-0.40241092545967794
1499369098029,-0.05120927748531301,-0.87861448081178,-0.40704966811627363
1499369098045,-0.05279621576256943,-0.8859388113221942,-0.4192568856336307
1499369098061,-0.05548180361638799,-0.8887464713511863,-0.43512626840619495
1499369098077,-0.05682459754329727,-0.8867933165484092,-0.4464789806973375
1499369098093,-0.055970092317082276,-0.8844739452201114,-0.4464789806973375
1499369098109,-0.056946669718470844,-0.8855725947966735,-0.4406195162890061
1499369098125,-0.053772793163958,-0.8853284504463264,-0.42841229877164855
1499369098141,-0.052918287937743,-0.8897230487525749,-0.4159609369039443
1499369098157,-0.05523765926604085,-0.8878919661249713,-0.4042420080872815
1499369098173,-0.05511558709086728,-0.8872816052491035,-0.4020447089341572
1499369098189,-0.0567025253681237,-0.8842298008697642,-0.40326543068589293
1499369098205,-0.05474937056534657,-0.8822766460669871,-0.41083390554665433
1499369098221,-0.05120927748531301,-0.8816662851911192,-0.4186465247577629
1499369098237,-0.05279621576256943,-0.8810559243152514,-0.43048752574959925
1499369098253,-0.052063782711528006,-0.8826428625925078,-0.4439154650186925
1499369098269,-0.05474937056534657,-0.8827649347676814,-0.44574654764629607
1499369098285,-0.05487144274052014,-0.8800793469138628,-0.44281681544213036
1499369098301,-0.05535973144121442,-0.8759288929579614,-0.4408636606393532
1499369098317,-0.05523765926604085,-0.8754406042572671,-0.43476005188067424
1499369098333,-0.05633630884260299,-0.87519645990692,-0.42804608224612783
1499369098349,-0.05535973144121442,-0.8775158312352178,-0.42328526741435857
1499369098365,-0.0575570305943387,-0.8799572747386892,-0.42548256656748284
1499369098381,-0.055848020141908705,-0.8809338521400778,-0.43097581445029354
1499369098397,-0.05548180361638799,-0.8823987182421607,-0.4303654535744257
1499369098413,-0.05487144274052014,-0.8819104295414664,-0.43512626840619495
1499369098429,-0.05511558709086728,-0.8837415121690699,-0.43390554665445924
1499369098445,-0.055848020141908705,-0.8874036774242771,-0.43085374227511997
1499369098461,-0.053772793163958,-0.8892347600518806,-0.42719157701991284
1499369098477,-0.05133134966048658,-0.8874036774242771,-0.42377355611505285
1499369098493,-0.049378194857709445,-0.8849622339208056,-0.4176699473563743
1499369098509,-0.04864576180666802,-0.8827649347676814,-0.4160830090791179
1499369098525,-0.049134050507362304,-0.8832532234683756,-0.4138857099259936
1499369098541,-0.05157549401083372,-0.8856946669718471,-0.4143739986266879
1499369098557,-0.054383154039825854,-0.8910658426794842,-0.4185244525825893
1499369098573,-0.05767910276951227,-0.8928969253070878,-0.41913481345845716
1499369098589,-0.05548180361638799,-0.8914320592050049,-0.4226749065384907
1499369098605,-0.05426108186465228,-0.889967193102922,-0.4235294117647057
1499369098621,-0.05352864881361086,-0.8906996261539635,-0.42243076218814357
1499369098637,-0.050720988784618726,-0.8870374608987563,-0.42084382391088715
1499369098653,-0.05169756618600729,-0.8864271000228885,-0.4173037308308536
1499369098669,-0.05169756618600729,-0.8852063782711528,-0.4140077821011672
1499369098685,-0.0508430609597923,-0.8860608834973678,-0.4160830090791179
1499369098701,-0.05120927748531301,-0.8858167391470206,-0.41718165865568
1499369098717,-0.053040360112916574,-0.8856946669718471,-0.41669336995498574
1499369098733,-0.05255207141222229,-0.8875257495994506,-0.4207217517357136
1499369098749,-0.051941710536354435,-0.8903334096284428,-0.42230869001297
1499369098765,-0.05255207141222229,-0.8921644922560463,-0.42084382391088715
1499369098781,-0.053406576638437286,-0.8924086366063935,-0.41913481345845716
1499369098797,-0.05133134966048658,-0.8927748531319142,-0.4142519264515143
1499369098813,-0.04864576180666802,-0.8903334096284428,-0.4109559777218279
1499369098829,-0.04852368963149445,-0.8869153887235828,-0.41071183337148076
1499369098845,-0.048157473105973736,-0.8878919661249713,-0.40534065766384364
1499369098861,-0.0499885557335773,-0.8892347600518806,-0.40778210116731506
1499369098877,-0.05169756618600729,-0.8911879148546578,-0.41083390554665433
1499369098893,-0.050598916609445155,-0.8905775539787899,-0.4151064316777293
1499369098909,-0.05218585488670158,-0.8894789044022278,-0.4168154421301593
1499369098925,-0.052063782711528006,-0.890821698329137,-0.4173037308308536
1499369098941,-0.05255207141222229,-0.8922865644312199,-0.4155947203784236
1499369098957,-0.05230792706187515,-0.8931410696574349,-0.41449607080186146
1499369098973,-0.053772793163958,-0.8949721522850385,-0.41242084382391075
1499369098989,-0.05401693751430514,-0.894239719233997,-0.40607309071488507
1499369099005,-0.05267414358739586,-0.8936293583581292,-0.4038757915617608
1499369099021,-0.053040360112916574,-0.8932631418326085,-0.40448615243762864
1499369099037,-0.05133134966048658,-0.8928969253070878,-0.40485236896314936
1499369099053,-0.05035477225909801,-0.8913099870298313,-0.4054627298390172
1499369099069,-0.04974441138323016,-0.891676203555352,-0.40790417334248863
1499369099085,-0.05145342183566015,-0.8943617914091706,-0.4063172350652322
1499369099101,-0.05035477225909801,-0.8946059357595177,-0.4047302967879758
1499369099117,-0.05133134966048658,-0.8954604409857327,-0.40814831769283577
1499369099133,-0.05218585488670158,-0.8939955748836499,-0.40827038986800934
1499369099149,-0.050720988784618726,-0.8938735027084763,-0.40485236896314936
1499369099165,-0.05145342183566015,-0.8944838635843442,-0.40143434805828937
1499369099181,-0.05145342183566015,-0.8937514305333027,-0.4018005645838101
1499369099197,-0.05169756618600729,-0.8921644922560463,-0.4028992141603722
1499369099213,-0.05157549401083372,-0.8936293583581292,-0.40607309071488507
1499369099229,-0.05169756618600729,-0.8915541313801785,-0.4028992141603722
1499369099245,-0.05023270008392444,-0.8936293583581292,-0.40363164721141365
1499369099261,-0.04974441138323016,-0.8932631418326085,-0.40399786373693436
1499369099277,-0.05120927748531301,-0.8943617914091706,-0.40228885328450437
1499369099293,-0.05157549401083372,-0.895094224460212,-0.40070191500724794
1499369099309,-0.051819638361180864,-0.895094224460212,-0.40021362630655366
1499369099325,-0.053040360112916574,-0.8946059357595177,-0.39948119325551223
1499369099341,-0.05120927748531301,-0.8970473792629892,-0.39850461585412367
1499369099357,-0.05133134966048658,-0.8971694514381627,-0.4000915541313801
1499369099373,-0.05133134966048658,-0.896803234912642,-0.40106813153276866
1499369099389,-0.050476844434271584,-0.8972915236133363,-0.39948119325551223
1499369099405,-0.04986648355840373,-0.8981460288395513,-0.3966735332265201
1499369099421,-0.05145342183566015,-0.8952162966353856,-0.39765011062790867
1499369099437,-0.05108720531013944,-0.8955825131609063,-0.3980163271534294
1499369099453,-0.05169756618600729,-0.8981460288395513,-0.39740596627756153
1499369099469,-0.052063782711528006,-0.8990005340657663,-0.39850461585412367
1499369099485,-0.0508430609597923,-0.9005874723430227,-0.39655146105134653
1499369099501,-0.05157549401083372,-0.8991226062409399,-0.39520866712443725
1499369099517,-0.051941710536354435,-0.8999771114671549,-0.3950865949492637
1499369099533,-0.051819638361180864,-0.8981460288395513,-0.3954528114747844
1499369099549,-0.05242999923704872,-0.8987563897154192,-0.3937438010223544
1499369099565,-0.052918287937743,-0.9003433279926756,-0.39362172884718083
1499369099581,-0.05108720531013944,-0.9009536888685434,-0.39142442969405655
1499369099597,-0.05011062790875087,-0.9013199053940641,-0.3920347905699244
1499369099613,-0.049256122682535874,-0.8999771114671549,-0.39313344014648655
1499369099629,-0.05011062790875087,-0.9000991836423284,-0.392156862745098
1499369099645,-0.05145342183566015,-0.8998550392919813,-0.39472037842374297
1499369099661,-0.050598916609445155,-0.9004654001678492,-0.3942320897230487
1499369099677,-0.051941710536354435,-0.9016861219195849,-0.3920347905699244
1499369099693,-0.049256122682535874,-0.9016861219195849,-0.3925230792706187
1499369099709,-0.049378194857709445,-0.8999771114671549,-0.39179064621957727
1499369099725,-0.05035477225909801,-0.9013199053940641,-0.3903257801174944
1499369099741,-0.05230792706187515,-0.9020523384451056,-0.39056992446784156
1499369099757,-0.051941710536354435,-0.9011978332188906,-0.39191271839475084
1499369099773,-0.05157549401083372,-0.9009536888685434,-0.39020370794232084
1499369099789,-0.04901197833218873,-0.9022964827954527,-0.3862973983367666
1499369099805,-0.04779125658045302,-0.9024185549706263,-0.38678568703746086
1499369099821,-0.0470588235294116,-0.9018081940947584,-0.3865415426871137
1499369099837,-0.04730296787975874,-0.8998550392919813,-0.3862973983367666
1499369099853,-0.04962233920805659,-0.900221255817502,-0.3858091096360723
1499369099869,-0.04986648355840373,-0.901075761043717,-0.38507667658503086
1499369099885,-0.0499885557335773,-0.9033951323720149,-0.38605325398641943
1499369099901,-0.05279621576256943,-0.9059586480506598,-0.3873960479133287
1499369099917,-0.051819638361180864,-0.9055924315251391,-0.3856870374608987
1499369099933,-0.05242999923704872,-0.9058365758754863,-0.3841000991836423
1499369099949,-0.05242999923704872,-0.9047379262989241,-0.38556496528572515
1499369099965,-0.052918287937743,-0.9065690089265277,-0.3837338826581216
1499369099981,-0.05145342183566015,-0.9074235141527427,-0.3815365835049973
1499369099997,-0.0499885557335773,-0.9073014419775691,-0.3808041504539559
1499369100013,-0.0508430609597923,-0.909620813305867,-0.38092622262912945
1499369100029,-0.05267414358739586,-0.9145037003128098,-0.38214694438086516
1499369100045,-0.053284504463263715,-0.9175555046921491,-0.3815365835049973
1499369100061,-0.05352864881361086,-0.9247577630273898,-0.37555504692149233
1499369100077,-0.059632257572289404,-0.9359884031433583,-0.37250324254215306
1499369100093,-0.05926604104676869,-0.9268329900053405,-0.37262531471732663
1499369100109,-0.04730296787975874,-0.9132829785610741,-0.3606622415503167
1499369100125,-0.04315251392385733,-0.9040054932478827,-0.3665217059586481
1499369100141,-0.039124132143129486,-0.9013199053940641,-0.3744563973449302
1499369100157,-0.03546196688792236,-0.8937514305333027,-0.36700999465934236
1499369100173,-0.03216601815823594,-0.8941176470588235,-0.37042801556420235
1499369100189,-0.03717097734035235,-0.8980239566643777,-0.3714045929655909
1499369100205,-0.03985656519417091,-0.9000991836423284,-0.3626153963530938
1499369100221,-0.04449530785076661,-0.9022964827954527,-0.3588311589227131
1499369100237,-0.04583810177767589,-0.9049820706492713,-0.3613946746013581
1499369100253,-0.04766918440527945,-0.9068131532768748,-0.355168993667506
1499369100269,-0.04852368963149445,-0.9071793698023956,-0.357732509346151
1499369100285,-0.04571602960250232,-0.905348287174792,-0.3663996337834745
1499369100301,-0.04437323567559304,-0.9030289158464941,-0.3651789120317388
1499369100317,-0.03826962691691449,-0.9059586480506598,-0.37262531471732663
1499369100333,-0.04193179217212162,-0.9065690089265277,-0.3701838712138552
1499369100349,-0.04229800869764233,-0.8988784618905927,-0.3672541390096895
1499369100365,-0.03680476081483164,-0.8863050278477149,-0.3572442206454567
1499369100381,-0.029480430304417382,-0.9005874723430227,-0.3395437552452889
1499369100397,-0.03204394598306237,-0.9429465171282523,-0.3521171892881667
1499369100413,-0.03997863736934448,-0.9573510337987337,-0.34393835355153746
1499369100429,-0.04742504005493231,-0.9287861448081176,-0.32220950637064183
1499369100445,-0.04596017395284946,-0.8971694514381627,-0.3411306935225453
1499369100461,-0.04864576180666802,-0.8904554818036163,-0.3516289005874724
1499369100477,-0.05389486533913157,-0.9052262149996184,-0.36908522163729307
1499369100493,-0.06024261844815726,-0.9173113603418019,-0.3823910887312123
1499369100509,-0.06842145418478696,-0.9228046082246126,-0.3815365835049973
1499369100525,-0.07257190814068837,-0.9250019073777369,-0.3925230792706187
1499369100541,-0.07525749599450693,-0.9234149691004805,-0.3991149767299915
1499369100557,-0.07281605249103551,-0.9207293812466619,-0.4072938124666208
1499369100573,-0.06439307240405912,-0.9208514534218355,-0.4088807507438772
1499369100589,-0.06329442282749698,-0.9232928969253069,-0.3924010070954451
1499369100605,-0.05877775234607441,-0.9232928969253069,-0.37750820172426947
1499369100621,-0.05279621576256943,-0.9177996490424962,-0.36322575722896167
1499369100637,-0.04754711223010588,-0.9129167620355534,-0.3504081788357367
1499369100653,-0.04596017395284946,-0.9074235141527427,-0.3433279926756696
1499369100669,-0.042786297398336615,-0.9076676585030898,-0.34149691004806604
1499369100685,-0.045593957427328746,-0.9170672159914548,-0.3386892500190739
1499369100701,-0.05169756618600729,-0.9264667734798198,-0.3438162813763639
1499369100717,-0.049500267032883016,-0.9273212787060348,-0.3495536736095217
1499369100733,-0.05096513313496587,-0.9235370412756541,-0.3516289005874724
1499369100749,-0.04962233920805659,-0.9245136186770426,-0.3584649423971924
1499369100765,-0.04632639047837017,-0.9229266803997862,-0.36029602502479596
1499369100781,-0.045593957427328746,-0.9187762264438848,-0.356878004119936
1499369100797,-0.04095521477073305,-0.9151140611886777,-0.35199511711299314
1499369100813,-0.04229800869764233,-0.9158464942397191,-0.34991989013504243
1499369100829,-0.03961242084382377,-0.9174334325169755,-0.35101853971160457
1499369100845,-0.04217593652246876,-0.9191424429694055,-0.3488212405584803
1499369100861,-0.04498359655146089,-0.9179217212176698,-0.3512626840619517
1499369100877,-0.050720988784618726,-0.9180437933928434,-0.3533379110399024
1499369100893,-0.04840161745632088,-0.9158464942397191,-0.3546807049668117
1499369100909,-0.04498359655146089,-0.9153582055390248,-0.3596856641489281
1499369100925,-0.042786297398336615,-0.9170672159914548,-0.37006179903868164
1499369100941,-0.044251163500419466,-0.9153582055390248,-0.3723811703669795
1499369100957,-0.03997863736934448,-0.9146257724879834,-0.37079423208972306
1499369100973,-0.039124132143129486,-0.913038834210727,-0.3739681086442359
1499369100989,-0.04083314259555948,-0.9142595559624627,-0.3718928816662852
1499369101005,-0.04229800869764233,-0.913893339436942,-0.3643244068055238
1499369101021,-0.04339665827420447,-0.911329823758297,-0.35663385976958883
1499369101037,-0.04449530785076661,-0.9101091020065613,-0.34723430228122387
1499369101053,-0.047913328755626594,-0.9107194628824291,-0.344060425726711
1499369101069,-0.0508430609597923,-0.9125505455100327,-0.34222934309910746
1499369101085,-0.05023270008392444,-0.9110856794079498,-0.34271763179980175
1499369101101,-0.05230792706187515,-0.9168230716411077,-0.35114061188677814
1499369101117,-0.0499885557335773,-0.9202410925459676,-0.35956359197375454
1499369101133,-0.047913328755626594,-0.9226825360494391,-0.3667658503089952
1499369101149,-0.046692607003890885,-0.9206073090714884,-0.36798657206073093
1499369101165,-0.04644846265354374,-0.9204852368963148,-0.3673762111848631
1499369101181,-0.04852368963149445,-0.9204852368963148,-0.3606622415503167
1499369101197,-0.049500267032883016,-0.9196307316700998,-0.35028610666056315
1499369101213,-0.049134050507362304,-0.9164568551155869,-0.34064240482185104
1499369101229,-0.05023270008392444,-0.9190203707942319,-0.3361257343404289
1499369101245,-0.04571602960250232,-0.9214618142977034,-0.3369802395666439
1499369101261,-0.04510566872663446,-0.9285420004577705,-0.33478294041351964
1499369101277,-0.038879987792782345,-0.9262226291294726,-0.34308384832532246
1499369101293,-0.035217822537575216,-0.9195086594949262,-0.34430457007705817
1499369101309,-0.03350881208514522,-0.9171892881666284,-0.3419851987487603
1499369101325,-0.029968719005111666,-0.9196307316700998,-0.3433279926756696
1499369101341,-0.03143358510719452,-0.9223163195239183,-0.33344014648661036
1499369101357,-0.03302052338445094,-0.9230487525749598,-0.3303883421072711
1499369101373,-0.03741512169069949,-0.924391546501869,-0.32794689860379966
1499369101389,-0.04119935912108019,-0.9224383916990919,-0.3239185168230718
1499369101405,-0.04510566872663446,-0.9181658655680169,-0.3256275272755018
1499369101421,-0.04974441138323016,-0.9209735255970091,-0.33380636301213107
1499369101437,-0.05145342183566015,-0.9221942473487448,-0.3421072709239339
1499369101453,-0.05560387579156156,-0.9237811856260012,-0.3454032196536203
1499369101469,-0.056946669718470844,-0.9281757839322498,-0.35492484931715884
1499369101485,-0.055848020141908705,-0.932082093537804,-0.3646906233310445
1499369101501,-0.05279621576256943,-0.9336690318150604,-0.36456855115587095
1499369101517,-0.04852368963149445,-0.9282978561074233,-0.36041809719996953
1499369101533,-0.049500267032883016,-0.9217059586480505,-0.36371404592965595
1499369101549,-0.047913328755626594,-0.9170672159914548,-0.35187304493781957
1499369101565,-0.046570534828717314,-0.9170672159914548,-0.3424734874494546
1499369101581,-0.044129091325245895,-0.9195086594949262,-0.33929961089494176
1499369101597,-0.042908369573510186,-0.9180437933928434,-0.33466086823834607
1499369101613,-0.043030441748683756,-0.9184100099183641,-0.32965590905622966
1499369101629,-0.046692607003890885,-0.9207293812466619,-0.33649195086594963
1499369101645,-0.04779125658045302,-0.9229266803997862,-0.33893339436942105
1499369101661,-0.05035477225909801,-0.9232928969253069,-0.3378347447928589
1499369101677,-0.04840161745632088,-0.9271992065308612,-0.3458915083543146
1499369101693,-0.04510566872663446,-0.9259784847791255,-0.34723430228122387
1499369101709,-0.044251163500419466,-0.9270771343556876,-0.346623941405356
1499369101725,-0.042908369573510186,-0.9248798352025633,-0.34772259098191816
1499369101741,-0.0432745860990309,-0.9235370412756541,-0.3412527656977189
1499369101757,-0.0432745860990309,-0.9223163195239183,-0.3403982604715039
1499369101773,-0.041443503471427334,-0.9199969481956205,-0.3373464560921646
1499369101789,-0.04254215304798947,-0.9215838864728769,-0.32928969253070894
1499369101805,-0.04510566872663446,-0.9215838864728769,-0.33344014648661036
1499369101821,-0.04510566872663446,-0.9219501029983976,-0.3349050125886932
1499369101837,-0.046814679179064456,-0.9229266803997862,-0.33392843518730464
1499369101853,-0.045593957427328746,-0.9236591134508276,-0.33856717784390034
1499369101869,-0.04766918440527945,-0.9245136186770426,-0.3388113221942475
1499369101885,-0.04852368963149445,-0.9265888456549933,-0.3379568169680325
1499369101901,-0.04730296787975874,-0.9250019073777369,-0.3412527656977189
1499369101917,-0.04583810177767589,-0.9230487525749598,-0.3390554665445946
1499369101933,-0.04376287479972518,-0.9231708247501333,-0.33551537346456106
1499369101949,-0.04596017395284946,-0.9240253299763483,-0.3383230334935532
1499369101965,-0.04388494697489875,-0.9264667734798198,-0.3353933012893875
1499369101981,-0.04449530785076661,-0.9267109178301669,-0.3352712291142139
1499369101997,-0.04229800869764233,-0.9237811856260012,-0.3379568169680325
1499369102013,-0.04510566872663446,-0.9240253299763483,-0.3350270847638668
1499369102029,-0.04583810177767589,-0.9231708247501333,-0.33685816739147034
1499369102045,-0.04510566872663446,-0.9239032578011748,-0.3314869916838332
1499369102061,-0.04632639047837017,-0.9264667734798198,-0.3306324864576182
1499369102077,-0.04632639047837017,-0.9282978561074233,-0.33429465171282535
1499369102093,-0.04498359655146089,-0.9259784847791255,-0.3319752803845275
1499369102109,-0.04473945220111375,-0.9273212787060348,-0.3316090638590068
1499369102125,-0.04339665827420447,-0.9281757839322498,-0.33478294041351964
1499369102141,-0.04364080262455161,-0.9262226291294726,-0.3341725795376518
1499369102157,-0.04498359655146089,-0.9254901960784312,-0.3331960021362632
1499369102173,-0.043030441748683756,-0.9257343404287783,-0.3373464560921646
1499369102189,-0.045471885252155175,-0.927809567406729,-0.3340505073624782
1499369102205,-0.04632639047837017,-0.9254901960784312,-0.33344014648661036
1499369102221,-0.046692607003890885,-0.9235370412756541,-0.3302662699320975
1499369102237,-0.04571602960250232,-0.9223163195239183,-0.3303883421072711
1499369102253,-0.04571602960250232,-0.9274433508812083,-0.33136491950865965
1499369102269,-0.04632639047837017,-0.9296406500343326,-0.33014419775692394
1499369102285,-0.04632639047837017,-0.9309834439612419,-0.32721446555275824
1499369102301,-0.0470588235294116,-0.9302510109102005,-0.3333180743114368
1499369102317,-0.04510566872663446,-0.9319600213626305,-0.3316090638590068
1499369102333,-0.04596017395284946,-0.9313496604867626,-0.32892347600518823
1499369102349,-0.042664225223163044,-0.9301289387350269,-0.32758068207827895
1499369102365,-0.041443503471427334,-0.9296406500343326,-0.32379644464789825
1499369102381,-0.03973449301899734,-0.9293965056839855,-0.3226977950713361
1499369102397,-0.03814755474174092,-0.9292744335088119,-0.32257572289616254
1499369102413,-0.03692683299000521,-0.9308613717860683,-0.3180590524147404
1499369102429,-0.040344853894865196,-0.9315938048371097,-0.3192797741664761
1499369102445,-0.041443503471427334,-0.9328145265888454,-0.3211108567940797
1499369102461,-0.041565575646600905,-0.9322041657129776,-0.3176928358892197
1499369102477,-0.04339665827420447,-0.9340352483405812,-0.31537346456092186
1499369102493,-0.04339665827420447,-0.9339131761654076,-0.31952391851682327
1499369102509,-0.040344853894865196,-0.9336690318150604,-0.31842526894026113
1499369102525,-0.039124132143129486,-0.9348897535667962,-0.31793698023956685
1499369102541,-0.03729304951552592,-0.9323262378881512,-0.31708247501335185
1499369102557,-0.03729304951552592,-0.9314717326619362,-0.31671625848783114
1499369102573,-0.03717097734035235,-0.9317158770122833,-0.31830319676508756
1499369102589,-0.036194399938963784,-0.9340352483405812,-0.3214770733196004
1499369102605,-0.03424124513618665,-0.9351338979171433,-0.31879148546578184
1499369102621,-0.03472953383688093,-0.9342793926909283,-0.31622796978713685
1499369102637,-0.03607232776379021,-0.9341573205157547,-0.31378652628366543
1499369102653,-0.03533989471274879,-0.9333028152895397,-0.3096360723277636
1499369102669,-0.033752956435492365,-0.9306172274357212,-0.3067063401235979
1499369102685,-0.0365606164644845,-0.9308613717860683,-0.3065842679484243
1499369102701,-0.035217822537575216,-0.932936598764019,-0.30634012359807716
1499369102717,-0.035217822537575216,-0.936354619668879,-0.30926985580224287
1499369102733,-0.0327763790341038,-0.9392843518730452,-0.31146715495536714
1499369102749,-0.03302052338445094,-0.941603723201343,-0.3151293202105747
1499369102765,-0.03314259555962451,-0.9375753414206152,-0.318181124589914
1499369102781,-0.033630884260318794,-0.9344014648661019,-0.3126878767071033
1499369102797,-0.03302052338445094,-0.9357442587930112,-0.306950484473945
1499369102813,-0.03338673990997165,-0.9374532692454411,-0.3019455252918286
1499369102829,-0.03399710078583951,-0.9409933623254751,-0.2940108339055465
1499369102845,-0.032532234683756656,-0.9402609292744337,-0.2902265964751658
1499369102861,-0.033875028610665936,-0.9394064240482187,-0.2914473182269015
1499369102877,-0.03436331731136022,-0.9357442587930112,-0.29596398870832363
1499369102893,-0.032288090333409514,-0.9373311970702676,-0.30048065918974576
1499369102909,-0.03411917296101308,-0.9400167849240866,-0.30634012359807716
1499369102925,-0.03302052338445094,-0.9391622796978716,-0.3079270618753336
1499369102941,-0.032288090333409514,-0.9414816510261694,-0.31024643320363143
1499369102957,-0.03338673990997165,-0.9423361562523844,-0.30719462882429216
1499369102973,-0.03350881208514522,-0.9401388570992602,-0.3024338139925229
1499369102989,-0.03204394598306237,-0.9386739909971773,-0.30048065918974576
1499369103005,-0.03338673990997165,-0.938185702296483,-0.2965743495841915
1499369103021,-0.03314259555962451,-0.940749217975128,-0.2944991226062408
1499369103037,-0.03302052338445094,-0.9405050736247809,-0.29547570000762935
1499369103053,-0.03472953383688093,-0.9394064240482187,-0.2943770504310672
1499369103069,-0.034851606012054503,-0.9413595788509959,-0.29633020523384435
1499369103085,-0.03424124513618665,-0.9409933623254751,-0.29791714351110077
1499369103101,-0.030823224231326662,-0.9417257953765166,-0.29706263828488577
1499369103117,-0.03350881208514522,-0.9417257953765166,-0.3010910200656136
1499369103132,-0.032410162508583085,-0.9428244449530787,-0.29974822613870433
1499369103148,-0.03265430685893023,-0.9420920119020373,-0.29498741130693507
1499369103164,-0.034973678187228074,-0.9411154345006487,-0.2973067826352329
1499369103180,-0.032288090333409514,-0.9420920119020373,-0.29169146257724865
1499369103196,-0.03582818341344307,-0.9417257953765166,-0.2935225452048522
1499369103212,-0.03314259555962451,-0.939894712748913,-0.29547570000762935
1499369103228,-0.030945296406500233,-0.9395284962233923,-0.29205767910276936
1499369103244,-0.032288090333409514,-0.9395284962233923,-0.2962081330586708
1499369103260,-0.030945296406500233,-0.9402609292744337,-0.2985275043869686
1499369103276,-0.03350881208514522,-0.9414816510261694,-0.29706263828488577
1499369103292,-0.03314259555962451,-0.9448996719310294,-0.2974288548104065
1499369103308,-0.03399710078583951,-0.9462424658579387,-0.2947432669565879
1499369103324,-0.03265430685893023,-0.9461203936827651,-0.29303425650415793
1499369103340,-0.0327763790341038,-0.9455100328068973,-0.2924238956282901
1499369103356,-0.031189440756847375,-0.9420920119020373,-0.2888838025482565
1499369103372,-0.03204394598306237,-0.9406271457999544,-0.29083695735103365
1499369103388,-0.02923628595407024,-0.9364766918440526,-0.2860761425192644
1499369103404,-0.029724574654764524,-0.940749217975128,-0.28912794689860366
1499369103420,-0.02911421377889667,-0.9414816510261694,-0.2982833600366215
1499369103436,-0.03350881208514522,-0.9457541771572444,-0.2952315556572822
1499369103452,-0.029846646829938095,-0.9461203936827651,-0.2897383077744715
1499369103468,-0.030823224231326662,-0.9434348058289466,-0.2897383077744715
1499369103484,-0.03314259555962451,-0.9453879606317237,-0.28827344167238866
1499369103500,-0.0289921416037231,-0.9472190432593273,-0.28656443121995867
1499369103516,-0.03070115205615309,-0.948439765011063,-0.2850995651178758
1499369103532,-0.027405203326466676,-0.9455100328068973,-0.2809491111619744
1499369103548,-0.029846646829938095,-0.944167238879988,-0.277653162432288
1499369103564,-0.030823224231326662,-0.9414816510261694,-0.2809491111619744
1499369103580,-0.026184481574730967,-0.9384298466468302,-0.28448920424200796
1499369103596,-0.02911421377889667,-0.9427023727779051,-0.28448920424200796
1499369103612,-0.02777141985198739,-0.945876249332418,-0.28534370946822296
1499369103628,-0.028503852903028815,-0.9462424658579387,-0.28363469901579297
1499369103644,-0.02911421377889667,-0.9442893110551616,-0.28705271992065295
1499369103660,-0.028870069428549527,-0.9425803006027316,-0.2881513694972151
1499369103676,-0.028870069428549527,-0.9446555275806823,-0.28278019378957797
1499369103692,-0.03033493553063238,-0.9463645380331123,-0.28497749294270225
1499369103708,-0.03302052338445094,-0.9436789501792937,-0.2852216372930494
1499369103724,-0.03533989471274879,-0.9428244449530787,-0.28290226596475154
1499369103740,-0.033875028610665936,-0.9439230945296408,-0.28741893644617367
1499369103756,-0.0289921416037231,-0.9478294041351951,-0.2890058747234301
1499369103772,-0.03204394598306237,-0.9477073319600215,-0.2864423590447851
1499369103788,-0.02386511024643312,-0.9413595788509959,-0.28741893644617367
1499369103804,-0.023743038071259548,-0.9367208361943997,-0.2859540703440908
1499369103820,-0.022400244144350268,-0.9350118257419697,-0.2813153276874951
1499369103836,-0.02423132677195383,-0.9423361562523844,-0.276798657206073
1499369103852,-0.02789349202716096,-0.9481956206607158,-0.27325856412603944
1499369103868,-0.027405203326466676,-0.9448996719310294,-0.26935225452048517
1499369103884,-0.025818265049210254,-0.9385519188220037,-0.2641031509880216
1499369103900,-0.02679484245059882,-0.9362325474937054,-0.2637369344625009
1499369103916,-0.03350881208514522,-0.935500114442664,-0.26361486228732733
1499369103932,-0.0386358434424352,-0.9328145265888454,-0.26398107881284805
1499369103948,-0.04473945220111375,-0.9348897535667962,-0.26654459449149304
1499369103964,-0.04742504005493231,-0.9344014648661019,-0.27447928587777515
1499369103980,-0.05267414358739586,-0.9336690318150604,-0.2821698329137101
1499369103996,-0.05511558709086728,-0.9334248874647133,-0.29925993743801005
1499369104012,-0.057190814068817986,-0.9313496604867626,-0.30560769054703574
1499369104028,-0.057068741893644415,-0.9334248874647133,-0.30548561837186217
1499369104044,-0.061097123674372256,-0.9357442587930112,-0.316472114137484
1499369104060,-0.06121919584954583,-0.9378194857709623,-0.31110093842984643
1499369104076,-0.07415884641794479,-0.9335469596398869,-0.3049973296711679
1499369104092,-0.04608224612802303,-0.9676050965133136,-0.2953536278324558
1499369104108,-0.06793316548409267,-1.0039826047150378,-0.2935225452048522
1499369104124,-0.08770885786221116,-1.00337224383917,-0.3344167238879989
1499369104140,-0.07232776379034123,-0.9500267032883194,-0.3281910429541468
1499369104156,-0.07904173342488763,-0.9115739681086441,-0.28790722514686795
1499369104172,-0.08807507438773188,-0.8911879148546578,-0.313908598458839
1499369104188,-0.09222552834363329,-0.8914320592050049,-0.32965590905622966
1499369104204,-0.09185931181811258,-0.8935072861829556,-0.28326848249027226
1499369104220,-0.07855344472419334,-0.8936293583581292,-0.2728923476005187
1499369104236,-0.08270389868009476,-0.9115739681086441,-0.30438696879530003
1499369104252,-0.08831921873807902,-0.9345235370412754,-0.32599374380102253
1499369104268,-0.09503318837262542,-0.9422140840772109,-0.30768291752498644
1499369104284,-0.08429083695735118,-0.9402609292744337,-0.34686808575570316
1499369104300,-0.08429083695735118,-0.9480735484855423,-0.33392843518730464
1499369104316,-0.09124895094224472,-0.9618677042801558,-0.3399099717708096
1499369104332,-0.08929579613946759,-0.9546654459449151,-0.3079270618753336
1499369104348,-0.08612191958495474,-0.940749217975128,-0.2919356069275958
1499369104364,-0.08441290913252475,-0.934645609216449,-0.30438696879530003
1499369104380,-0.07684443427176335,-0.9375753414206152,-0.2962081330586708
1499369104396,-0.0753795681696805,-0.9477073319600215,-0.30609597924773
1499369104412,-0.07428091859311836,-0.9551537346456094,-0.30048065918974576
1499369104428,-0.07586785687037478,-0.9560082398718244,-0.2962081330586708
1499369104444,-0.08038452735179691,-0.9536888685435265,-0.2993820096131836
1499369104460,-0.08453498130769832,-0.9488059815365837,-0.29706263828488577
1499369104476,-0.08404669260700404,-0.9462424658579387,-0.2969405661097122
1499369104492,-0.08526741435873975,-0.945876249332418,-0.2960860608834972
1499369104508,-0.08697642481116974,-0.945876249332418,-0.2869306477454794
1499369104524,-0.08245975432974761,-0.946730754558633,-0.2800946059357594
1499369104540,-0.08563363088426046,-0.9488059815365837,-0.27704280155642014
1499369104556,-0.08477912565804546,-0.9532005798428322,-0.2771648737315937
1499369104572,-0.08245975432974761,-0.9542992294193944,-0.2809491111619744
1499369104588,-0.08343633173113618,-0.9521019302662701,-0.28119325551232155
1499369104604,-0.08087281605249119,-0.9511253528648815,-0.28326848249027226
1499369104620,-0.08368047608148332,-0.9503929198138401,-0.28241397726405726
1499369104636,-0.08038452735179691,-0.9434348058289466,-0.2805828946364537
1499369104652,-0.07684443427176335,-0.934645609216449,-0.281925688563363
1499369104668,-0.0736705577172505,-0.9365987640192261,-0.2831464103150987
1499369104684,-0.07476920729381265,-0.9385519188220037,-0.28461127641718154
1499369104700,-0.07598992904554835,-0.9413595788509959,-0.27154955367360945
1499369104716,-0.06793316548409267,-0.940749217975128,-0.27411306935225443
1499369104732,-0.06414892805371197,-0.9403830014496073,-0.27154955367360945
1499369104748,-0.06292820630197626,-0.9425803006027316,-0.2737468528267337
1499369104764,-0.06256198977645555,-0.942458228427558,-0.27106126497291516
1499369104780,-0.06561379415579482,-0.9440451667048144,-0.2641031509880216
1499369104796,-0.06622415503166268,-0.9436789501792937,-0.26434729533836876
1499369104812,-0.06744487678339839,-0.9439230945296408,-0.2638590066376745
1499369104828,-0.06732280460822482,-0.9447775997558558,-0.26105134660868234
1499369104844,-0.06976424811169624,-0.9446555275806823,-0.2654459449149309
1499369104860,-0.06878767071030767,-0.944167238879988,-0.2649576562142366
1499369104876,-0.07049668116273766,-0.9455100328068973,-0.26935225452048517
1499369104892,-0.07025253681239052,-0.948439765011063,-0.27704280155642014
1499369104908,-0.07086289768825837,-0.9507591363393608,-0.2804608224612801
1499369104924,-0.0733043411917298,-0.9499046311131458,-0.28412298771648725
1499369104940,-0.07257190814068837,-0.9457541771572444,-0.2848554207675287
1499369104956,-0.07354848554207694,-0.9412375066758223,-0.2877851529716944
1499369104972,-0.07562371252002764,-0.9408712901503016,-0.2805828946364537
1499369104988,-0.07476920729381265,-0.9440451667048144,-0.28155947203784226
1499369105004,-0.07354848554207694,-0.947585259784848,-0.2746013580529487
1499369105020,-0.07257190814068837,-0.9517357137407494,-0.2714274814984359
1499369105036,-0.07428091859311836,-0.9553978789959565,-0.27228198672465087
1499369105052,-0.07440299076829193,-0.9529564354924851,-0.26898603799496446
1499369105068,-0.07501335164415979,-0.9508812085145344,-0.27228198672465087
1499369105084,-0.07281605249103551,-0.9459983215075916,-0.27277027542534515
1499369105100,-0.07208361943999408,-0.9452658884565501,-0.2704509040970473
1499369105116,-0.0707408255130848,-0.9461203936827651,-0.2683756771190966
1499369105132,-0.07293812466620908,-0.9463645380331123,-0.26813153276874946
1499369105148,-0.07135118638895266,-0.950148775463493,-0.269108110170138
1499369105164,-0.0715953307392998,-0.950148775463493,-0.2675211718928816
1499369105180,-0.07183947508964694,-0.9496604867627987,-0.2714274814984359
1499369105196,-0.07196154726482051,-0.9522240024414437,-0.27325856412603944
1499369105212,-0.06768902113374553,-0.9519798580910965,-0.26813153276874946
1499369105228,-0.07086289768825837,-0.9532005798428322,-0.2697184710460059
1499369105244,-0.0678110933089191,-0.9530785076676587,-0.281071183337148
1499369105260,-0.06939803158617552,-0.9499046311131458,-0.2813153276874951
1499369105276,-0.06549172198062125,-0.9470969710841537,-0.2781414511329823
1499369105292,-0.06707866025787768,-0.9446555275806823,-0.2697184710460059
1499369105308,-0.06634622720683625,-0.9453879606317237,-0.2658121614404516
1499369105324,-0.06549172198062125,-0.9453879606317237,-0.26263828488593877
1499369105340,-0.06549172198062125,-0.9451438162813766,-0.2582436865796902
1499369105356,-0.06475928892957983,-0.9508812085145344,-0.2575112535286488
1499369105372,-0.06622415503166268,-0.9540550850690472,-0.2608072022583352
1499369105388,-0.06890974288548124,-0.9561303120469979,-0.2641031509880216
1499369105404,-0.0669565880827041,-0.9550316624704358,-0.2666666666666666
1499369105420,-0.06536964980544768,-0.9524681467917908,-0.2625162127107652
1499369105436,-0.06390478370336483,-0.9507591363393608,-0.2620279240100709
1499369105452,-0.06329442282749698,-0.949294270237278,-0.25604638742656594
1499369105468,-0.06121919584954583,-0.9500267032883194,-0.2545815213244831
1499369105484,-0.06073090714885154,-0.9516136415655758,-0.2545815213244831
1499369105500,-0.05938811322194226,-0.9546654459449151,-0.25433737697413594
1499369105516,-0.057312886243991557,-0.9532005798428322,-0.2573891813534752
1499369105532,-0.05426108186465228,-0.952712291142138,-0.2511635004196231
1499369105548,-0.055848020141908705,-0.9521019302662701,-0.2537270160982681
1499369105564,-0.055970092317082276,-0.9497825589379723,-0.2494544899671931
1499369105580,-0.05658045319295013,-0.9508812085145344,-0.24969863431754025
1499369105596,-0.055848020141908705,-0.951003280689708,-0.2518959334706645
1499369105612,-0.057068741893644415,-0.9513694972152287,-0.2525062943465324
1499369105628,-0.058533607995727266,-0.9524681467917908,-0.25592431525139236
1499369105644,-0.05938811322194226,-0.9516136415655758,-0.25555809872587165
1499369105660,-0.05926604104676869,-0.9534447241931794,-0.2570229648279545
1499369105676,-0.059632257572289404,-0.9529564354924851,-0.2600747692072938
1499369105692,-0.05914396887159512,-0.9508812085145344,-0.25604638742656594
1499369105708,-0.059876401922636546,-0.9502708476386665,-0.2604409857328145
1499369105724,-0.05951018539711583,-0.9496604867627987,-0.2608072022583352
1499369105740,-0.06036469062333083,-0.9489280537117573,-0.26446936751354233
1499369105756,-0.06060883497367797,-0.9478294041351951,-0.2632486457618066
1499369105772,-0.06195162890058725,-0.947585259784848,-0.26434729533836876
1499369105788,-0.060852979324025114,-0.9488059815365837,-0.2671549553673609
1499369105804,-0.059876401922636546,-0.9514915693904022,-0.2676432440680552
1499369105820,-0.061097123674372256,-0.9532005798428322,-0.26849774929427017
1499369105836,-0.05889982452124798,-0.953566796368353,-0.26849774929427017
1499369105852,-0.06036469062333083,-0.9530785076676587,-0.2670328831921873
1499369105868,-0.06256198977645555,-0.9508812085145344,-0.26849774929427017
1499369105884,-0.062195773250934394,-0.9486839093614101,-0.26276035706111234
1499369105900,-0.0657358663309684,-0.9485618371862365,-0.2645914396887159
1499369105916,-0.06256198977645555,-0.9489280537117573,-0.26105134660868234
1499369105932,-0.06353856717784412,-0.9496604867627987,-0.2611734187838559
1499369105948,-0.06353856717784412,-0.9516136415655758,-0.2608072022583352
1499369105964,-0.06329442282749698,-0.9536888685435265,-0.2608072022583352
1499369105980,-0.06329442282749698,-0.9538109407187001,-0.26263828488593877
1499369105996,-0.06341649500267055,-0.9528343633173115,-0.26190585183489734
1499369106012,-0.06268406195162912,-0.951857785915923,-0.2620279240100709
1499369106028,-0.0613412680247194,-0.9508812085145344,-0.2637369344625009
1499369106044,-0.05926604104676869,-0.9488059815365837,-0.2594644083314259
1499369106060,-0.059632257572289404,-0.9489280537117573,-0.2611734187838559
1499369106076,-0.0604867627985044,-0.949294270237278,-0.2609292744335088
1499369106092,-0.05999847409781012,-0.9495384145876251,-0.25970855268177306
1499369106108,-0.06073090714885154,-0.951003280689708,-0.2578774700541695
1499369106124,-0.05999847409781012,-0.9516136415655758,-0.25848783093003735
1499369106140,-0.058411535820553695,-0.9525902189669644,-0.25897611963073164
1499369106156,-0.06121919584954583,-0.9503929198138401,-0.25970855268177306
1499369106172,-0.059876401922636546,-0.9514915693904022,-0.26227206836041805
1499369106188,-0.06280613412680269,-0.951003280689708,-0.26178377965972377
1499369106204,-0.062439917601281536,-0.9505149919890137,-0.2637369344625009
1499369106220,-0.06207370107576082,-0.9508812085145344,-0.26276035706111234
1499369106236,-0.06451514457923269,-0.9502708476386665,-0.2603189135576409
1499369106252,-0.06280613412680269,-0.9485618371862365,-0.26276035706111234
1499369106268,-0.06207370107576082,-0.9496604867627987,-0.2653238727397573
1499369106284,-0.06060883497367797,-0.9496604867627987,-0.26105134660868234
1499369106300,-0.06073090714885154,-0.9511253528648815,-0.26398107881284805
1499369106316,-0.06195162890058725,-0.9530785076676587,-0.26056305790798806
1499369106332,-0.06073090714885154,-0.9502708476386665,-0.2688639658197909
1499369106348,-0.062317845426107965,-0.9485618371862365,-0.26105134660868234
1499369106364,-0.062317845426107965,-0.947585259784848,-0.2647135118638895
1499369106380,-0.0613412680247194,-0.9468528267338066,-0.2608072022583352
1499369106396,-0.062439917601281536,-0.9489280537117573,-0.2600747692072938
1499369106412,-0.0604867627985044,-0.9522240024414437,-0.26190585183489734
1499369106428,-0.05951018539711583,-0.9546654459449151,-0.26434729533836876
1499369106444,-0.0604867627985044,-0.9571068894483865,-0.26361486228732733
1499369106460,-0.0604867627985044,-0.9539330128938737,-0.26276035706111234
1499369106476,-0.060852979324025114,-0.9503929198138401,-0.2628824292362859
1499369106492,-0.06121919584954583,-0.9470969710841537,-0.25897611963073164
1499369106508,-0.06024261844815726,-0.9468528267338066,-0.2570229648279545
1499369106524,-0.060975051499198685,-0.9473411154345008,-0.2553139543755245
1499369106540,-0.06182955672541368,-0.9514915693904022,-0.2573891813534752
1499369106556,-0.06207370107576082,-0.9539330128938737,-0.2570229648279545
1499369106572,-0.06414892805371197,-0.9569848172732129,-0.25812161440451664
1499369106588,-0.06305027847714983,-0.9556420233463037,-0.2590981918059052
1499369106604,-0.06268406195162912,-0.953566796368353,-0.2604409857328145
1499369106620,-0.06414892805371197,-0.9511253528648815,-0.2620279240100709
1499369106636,-0.062439917601281536,-0.951857785915923,-0.2586099031052109
1499369106652,-0.061097123674372256,-0.9511253528648815,-0.25970855268177306
1499369106668,-0.06268406195162912,-0.9496604867627987,-0.2592202639810788
1499369106684,-0.06121919584954583,-0.9496604867627987,-0.26056305790798806
1499369106700,-0.05914396887159512,-0.9511253528648815,-0.25726710917830165
1499369106716,-0.057190814068817986,-0.9521019302662701,-0.2578774700541695
1499369106732,-0.05792324711985941,-0.9525902189669644,-0.2611734187838559
1499369106748,-0.05889982452124798,-0.9525902189669644,-0.25934233615625235
1499369106764,-0.0613412680247194,-0.9532005798428322,-0.25812161440451664
1499369106780,-0.062439917601281536,-0.9522240024414437,-0.2570229648279545
1499369106796,-0.06305027847714983,-0.9513694972152287,-0.25677882047760736
1499369106812,-0.06329442282749698,-0.9525902189669644,-0.2573891813534752
1499369106828,-0.062195773250934394,-0.951857785915923,-0.2548256656748302
1499369106844,-0.06195162890058725,-0.9528343633173115,-0.2573891813534752
1499369106860,-0.06158541237506654,-0.9530785076676587,-0.2599526970321202
1499369106876,-0.062195773250934394,-0.954421301594568,-0.2548256656748302
1499369106892,-0.062439917601281536,-0.9540550850690472,-0.2582436865796902
1499369106908,-0.06060883497367797,-0.952712291142138,-0.25799954222934307
1499369106924,-0.059632257572289404,-0.9528343633173115,-0.2587319752803845
1499369106940,-0.06146334019989297,-0.9513694972152287,-0.2590981918059052
1499369106956,-0.06280613412680269,-0.9508812085145344,-0.2566567483024338
1499369106972,-0.06121919584954583,-0.9512474250400551,-0.25348287174792095
1499369106988,-0.060852979324025114,-0.9524681467917908,-0.2545815213244831
1499369107004,-0.0613412680247194,-0.9553978789959565,-0.25641260395208665
1499369107020,-0.06170748455024011,-0.9540550850690472,-0.25799954222934307
1499369107036,-0.05865568017090084,-0.9529564354924851,-0.25641260395208665
1499369107052,-0.06012054627298369,-0.9545433737697415,-0.26019684138246735
1499369107068,-0.06195162890058725,-0.9555199511711301,-0.25812161440451664
1499369107084,-0.062439917601281536,-0.9541771572442208,-0.25885404745555807
1499369107100,-0.06195162890058725,-0.9523460746166172,-0.2561684596017395
1499369107116,-0.06146334019989297,-0.9511253528648815,-0.25555809872587165
1499369107132,-0.06170748455024011,-0.951857785915923,-0.2503089951934081
1499369107148,-0.06170748455024011,-0.9513694972152287,-0.2525062943465324
1499369107164,-0.060852979324025114,-0.9530785076676587,-0.25311665522240023
1499369107180,-0.062195773250934394,-0.9555199511711301,-0.2556801709010452
1499369107196,-0.0604867627985044,-0.9561303120469979,-0.25421530479896237
1499369107212,-0.060975051499198685,-0.9571068894483865,-0.2554360265506981
1499369107228,-0.06073090714885154,-0.9538109407187001,-0.2554360265506981
1499369107244,-0.06207370107576082,-0.9523460746166172,-0.25262836652170595
1499369107260,-0.061097123674372256,-0.9512474250400551,-0.2506752117189288
1499369107276,-0.06012054627298369,-0.9503929198138401,-0.25214007782101167
1499369107292,-0.05877775234607441,-0.953566796368353,-0.2523842221713588
1499369107308,-0.05938811322194226,-0.9545433737697415,-0.2545815213244831
1499369107324,-0.059754329747462975,-0.9556420233463037,-0.25641260395208665
1499369107340,-0.06036469062333083,-0.9549095902952622,-0.25604638742656594
1499369107356,-0.058533607995727266,-0.9540550850690472,-0.2548256656748302
1499369107372,-0.06182955672541368,-0.9524681467917908,-0.2554360265506981
1499369107388,-0.061097123674372256,-0.9508812085145344,-0.2536049439230945
1499369107404,-0.06512550545510054,-0.9539330128938737,-0.2528725108720531
1499369107420,-0.05999847409781012,-0.9545433737697415,-0.24811169604028382
1499369107436,-0.06170748455024011,-0.955275806820783,-0.25592431525139236
1499369107452,-0.06268406195162912,-0.9566186007476922,-0.2548256656748302
1499369107468,-0.06280613412680269,-0.9551537346456094,-0.25641260395208665
1499369107484,-0.060975051499198685,-0.9551537346456094,-0.2532387273975738
1499369107500,-0.06073090714885154,-0.9546654459449151,-0.25348287174792095
1499369107516,-0.06036469062333083,-0.9530785076676587,-0.2494544899671931
1499369107532,-0.06012054627298369,-0.954421301594568,-0.25299458304722666
1499369107548,-0.060975051499198685,-0.9550316624704358,-0.25262836652170595
1499369107564,-0.05999847409781012,-0.9557640955214772,-0.2520180056458381
1499369107580,-0.059632257572289404,-0.9539330128938737,-0.25299458304722666
1499369107596,-0.05999847409781012,-0.9528343633173115,-0.25384908827344166
1499369107612,-0.05999847409781012,-0.9539330128938737,-0.25226214999618524
1499369107628,-0.06121919584954583,-0.9549095902952622,-0.25091935606927596
1499369107644,-0.059754329747462975,-0.9558861676966508,-0.2510414282444495
1499369107660,-0.0604867627985044,-0.9553978789959565,-0.24786755168993668
1499369107676,-0.06146334019989297,-0.9578393224994279,-0.2537270160982681
1499369107692,-0.060975051499198685,-0.9566186007476922,-0.2553139543755245
1499369107708,-0.06256198977645555,-0.9567406729228658,-0.25299458304722666
1499369107724,-0.062317845426107965,-0.9549095902952622,-0.25690089265278093
1499369107740,-0.06170748455024011,-0.9530785076676587,-0.2503089951934081
1499369107756,-0.060975051499198685,-0.9511253528648815,-0.25226214999618524
1499369107772,-0.05951018539711583,-0.9506370641641873,-0.2515297169451438
1499369107788,-0.05951018539711583,-0.9533226520180058,-0.2494544899671931
1499369107804,-0.05999847409781012,-0.9545433737697415,-0.2490882734416724
1499369107820,-0.059876401922636546,-0.9568627450980394,-0.25128557259479667
1499369107836,-0.05926604104676869,-0.9572289616235601,-0.2527504386968795
1499369107852,-0.060852979324025114,-0.9572289616235601,-0.25128557259479667
1499369107868,-0.06182955672541368,-0.9553978789959565,-0.24835584039063097
1499369107884,-0.06060883497367797,-0.9524681467917908,-0.2499427786678874
1499369107900,-0.060852979324025114,-0.9513694972152287,-0.25055313954375524
1499369107916,-0.06036469062333083,-0.9507591363393608,-0.25018692301823453
1499369107932,-0.0604867627985044,-0.9550316624704358,-0.25091935606927596
1499369107948,-0.06024261844815726,-0.9577172503242544,-0.2499427786678874
1499369107964,-0.05951018539711583,-0.9583276112001222,-0.2503089951934081
1499369107980,-0.059876401922636546,-0.9567406729228658,-0.25299458304722666
1499369107996,-0.06036469062333083,-0.953566796368353,-0.2533607995727474
1499369108012,-0.0613412680247194,-0.9525902189669644,-0.25177386129549095
1499369108028,-0.0613412680247194,-0.9514915693904022,-0.25299458304722666
1499369108044,-0.062195773250934394,-0.9519798580910965,-0.2515297169451438
1499369108060,-0.059754329747462975,-0.9546654459449151,-0.24896620126649882
1499369108076,-0.059632257572289404,-0.9555199511711301,-0.24628061341268026
1499369108092,-0.060975051499198685,-0.9567406729228658,-0.24896620126649882
1499369108108,-0.059754329747462975,-0.9574731059739072,-0.24798962386511025
1499369108124,-0.06341649500267055,-0.9578393224994279,-0.24725719081406883
1499369108140,-0.06036469062333083,-0.9556420233463037,-0.24957656214236668
1499369108156,-0.061097123674372256,-0.9542992294193944,-0.2507972838941024
1499369108172,-0.05914396887159512,-0.9545433737697415,-0.24957656214236668
1499369108188,-0.06060883497367797,-0.9541771572442208,-0.24676890211337454
1499369108204,-0.05865568017090084,-0.9541771572442208,-0.24664682993820097
1499369108220,-0.057068741893644415,-0.954421301594568,-0.24835584039063097
1499369108236,-0.05877775234607441,-0.9542992294193944,-0.24640268558785383
1499369108252,-0.05889982452124798,-0.9530785076676587,-0.2494544899671931
1499369108268,-0.06012054627298369,-0.9529564354924851,-0.24884412909132525
1499369108284,-0.06073090714885154,-0.9558861676966508,-0.24982070649271382
1499369108300,-0.06073090714885154,-0.9579613946746015,-0.2507972838941024
1499369108316,-0.06012054627298369,-0.9580834668497751,-0.24933241779201953
1499369108332,-0.05914396887159512,-0.9566186007476922,-0.25177386129549095
1499369108348,-0.06024261844815726,-0.9555199511711301,-0.2485999847409781
1499369108364,-0.06182955672541368,-0.9546654459449151,-0.24872205691615168
1499369108380,-0.061097123674372256,-0.9555199511711301,-0.24591439688715955
1499369108396,-0.059876401922636546,-0.955275806820783,-0.24640268558785383
1499369108412,-0.06060883497367797,-0.9553978789959565,-0.24664682993820097
1499369108428,-0.05816739147020655,-0.9553978789959565,-0.2506752117189288
1499369108444,-0.062195773250934394,-0.9569848172732129,-0.24811169604028382
1499369108460,-0.0604867627985044,-0.9566186007476922,-0.24969863431754025
1499369108476,-0.06158541237506654,-0.9550316624704358,-0.2515297169451438
1499369108492,-0.059754329747462975,-0.9550316624704358,-0.2490882734416724
1499369108508,-0.058533607995727266,-0.9550316624704358,-0.24762340733958954
1499369108524,-0.06060883497367797,-0.9551537346456094,-0.24493781948577098
1499369108540,-0.05926604104676869,-0.9560082398718244,-0.24554818036163883
1499369108556,-0.05767910276951227,-0.9562523842221715,-0.24420538643472955
1499369108572,-0.05816739147020655,-0.9550316624704358,-0.24884412909132525
1499369108588,-0.05804531929503298,-0.9558861676966508,-0.24982070649271382
1499369108604,-0.05889982452124798,-0.9545433737697415,-0.25128557259479667
1499369108620,-0.05951018539711583,-0.9556420233463037,-0.24884412909132525
1499369108636,-0.06024261844815726,-0.9551537346456094,-0.2456702525368124
1499369108652,-0.060975051499198685,-0.9567406729228658,-0.24664682993820097
1499369108668,-0.06121919584954583,-0.9577172503242544,-0.24469367513542384
1499369108684,-0.06060883497367797,-0.9555199511711301,-0.2461585412375067
1499369108700,-0.06012054627298369,-0.9558861676966508,-0.24640268558785383
1499369108716,-0.06073090714885154,-0.9562523842221715,-0.24518196383611812
1499369108732,-0.059876401922636546,-0.9571068894483865,-0.24762340733958954
1499369108748,-0.05914396887159512,-0.9564965285725187,-0.24713511863889526
1499369108764,-0.06073090714885154,-0.9564965285725187,-0.2482337682154574
1499369108780,-0.05914396887159512,-0.9562523842221715,-0.2473792629892424
1499369108796,-0.05889982452124798,-0.9551537346456094,-0.24713511863889526
1499369108812,-0.05938811322194226,-0.9551537346456094,-0.24689097428854812
1499369108828,-0.059632257572289404,-0.9549095902952622,-0.24640268558785383
1499369108844,-0.062195773250934394,-0.9564965285725187,-0.24835584039063097
1499369108860,-0.06036469062333083,-0.9555199511711301,-0.2444495307850767
1499369108876,-0.059754329747462975,-0.9574731059739072,-0.25140764476997024
1499369108892,-0.05999847409781012,-0.9577172503242544,-0.24847791256580454
1499369108908,-0.05999847409781012,-0.9579613946746015,-0.24872205691615168
1499369108924,-0.05889982452124798,-0.9571068894483865,-0.24847791256580454
1499369108940,-0.0604867627985044,-0.9558861676966508,-0.24847791256580454
1499369108956,-0.06012054627298369,-0.9555199511711301,-0.2465247577630274
1499369108972,-0.06207370107576082,-0.9562523842221715,-0.2448157473105974
1499369108988,-0.06158541237506654,-0.9560082398718244,-0.2456702525368124
1499369109004,-0.060975051499198685,-0.9557640955214772,-0.24628061341268026
1499369109020,-0.061097123674372256,-0.9550316624704358,-0.24603646906233312
1499369109036,-0.06024261844815726,-0.9556420233463037,-0.24750133516441597
1499369109052,-0.06036469062333083,-0.9577172503242544,-0.24762340733958954
1499369109068,-0.059754329747462975,-0.9549095902952622,-0.24542610818646526
1499369109084,-0.058411535820553695,-0.955275806820783,-0.24371709773403527
1499369109100,-0.06024261844815726,-0.9549095902952622,-0.24286259250782027
1499369109116,-0.05792324711985941,-0.9550316624704358,-0.243228809033341
1499369109132,-0.057312886243991557,-0.9580834668497751,-0.24554818036163883
1499369109148,-0.058533607995727266,-0.9563744563973451,-0.24383916990920884
1499369109164,-0.058289463645380124,-0.9542992294193944,-0.2465247577630274
1499369109180,-0.05914396887159512,-0.9557640955214772,-0.24286259250782027
1499369109196,-0.059754329747462975,-0.9553978789959565,-0.24371709773403527
1499369109212,-0.05926604104676869,-0.9550316624704358,-0.24225223163195242
1499369109228,-0.058411535820553695,-0.9562523842221715,-0.24603646906233312
1499369109244,-0.05999847409781012,-0.9571068894483865,-0.24505989166094455
1499369109260,-0.05951018539711583,-0.9569848172732129,-0.24798962386511025
1499369109276,-0.059754329747462975,-0.9564965285725187,-0.24689097428854812
1499369109292,-0.06060883497367797,-0.9568627450980394,-0.24762340733958954
1499369109308,-0.05938811322194226,-0.9547875181200887,-0.2448157473105974
1499369109324,-0.059876401922636546,-0.954421301594568,-0.24127565423056385
1499369109340,-0.06036469062333083,-0.9551537346456094,-0.24335088120851456
1499369109356,-0.05999847409781012,-0.9558861676966508,-0.24371709773403527
1499369109372,-0.05914396887159512,-0.9546654459449151,-0.24298466468299385
1499369109388,-0.05938811322194226,-0.9562523842221715,-0.24518196383611812
1499369109404,-0.058533607995727266,-0.9573510337987337,-0.24701304646372169
1499369109420,-0.05780117494468584,-0.9567406729228658,-0.24640268558785383
1499369109436,-0.058411535820553695,-0.955275806820783,-0.243228809033341
1499369109452,-0.05816739147020655,-0.9540550850690472,-0.2448157473105974
1499369109468,-0.05767910276951227,-0.9546654459449151,-0.24603646906233312
1499369109484,-0.05902189669642155,-0.9558861676966508,-0.2461585412375067
1499369109500,-0.06024261844815726,-0.9577172503242544,-0.2482337682154574
1499369109516,-0.06024261844815726,-0.9560082398718244,-0.24896620126649882
1499369109532,-0.05951018539711583,-0.9555199511711301,-0.24664682993820097
1499369109548,-0.059754329747462975,-0.9557640955214772,-0.2448157473105974
1499369109564,-0.05902189669642155,-0.9558861676966508,-0.24493781948577098
1499369109580,-0.05914396887159512,-0.9568627450980394,-0.24493781948577098
1499369109596,-0.05889982452124798,-0.9558861676966508,-0.2427405203326467
1499369109612,-0.05792324711985941,-0.9550316624704358,-0.2444495307850767
1499369109628,-0.059632257572289404,-0.9549095902952622,-0.24603646906233312
1499369109644,-0.059876401922636546,-0.9560082398718244,-0.24554818036163883
1499369109660,-0.06012054627298369,-0.9556420233463037,-0.24310673685816742
1499369109676,-0.059754329747462975,-0.9573510337987337,-0.24469367513542384
1499369109692,-0.06121919584954583,-0.9577172503242544,-0.24371709773403527
1499369109708,-0.059632257572289404,-0.9583276112001222,-0.24762340733958954
1499369109724,-0.05816739147020655,-0.9593041886015108,-0.24542610818646526
1499369109740,-0.05682459754329727,-0.9600366216525522,-0.24664682993820097
1499369109756,-0.05633630884260299,-0.9572289616235601,-0.24493781948577098
1499369109772,-0.05560387579156156,-0.9547875181200887,-0.2439612420843824
1499369109788,-0.057068741893644415,-0.9562523842221715,-0.2418860151064317
1499369109804,-0.05487144274052014,-0.9562523842221715,-0.23797970550087744
1499369109820,-0.05267414358739586,-0.9582055390249486,-0.2377355611505303
1499369109836,-0.054627298390172996,-0.9600366216525522,-0.23736934462500958
1499369109852,-0.05474937056534657,-0.9600366216525522,-0.23822384985122458
1499369109868,-0.05413900968947871,-0.9610131990539408,-0.23785763332570387
1499369109884,-0.05609216449225585,-0.9588158999008165,-0.24139772640573742
1499369109900,-0.05560387579156156,-0.9562523842221715,-0.23968871595330743
1499369109916,-0.05548180361638799,-0.9563744563973451,-0.23920042725261315
1499369109932,-0.05609216449225585,-0.9566186007476922,-0.23627069504844744
1499369109948,-0.05682459754329727,-0.9582055390249486,-0.23614862287327387
1499369109964,-0.05523765926604085,-0.9612573434042879,-0.23846799420157172
1499369109980,-0.05548180361638799,-0.9602807660028994,-0.24005493247882814
1499369109996,-0.05645838101777656,-0.9600366216525522,-0.2410315098802167
1499369110011,-0.057190814068817986,-0.9582055390249486,-0.24042114900434886
1499369110027,-0.056946669718470844,-0.9574731059739072,-0.24139772640573742
1499369110043,-0.05609216449225585,-0.9564965285725187,-0.23846799420157172
1499369110059,-0.05621423666742942,-0.9561303120469979,-0.2385900663767453
1499369110075,-0.05499351491569371,-0.9567406729228658,-0.23712520027466244
1499369110091,-0.054383154039825854,-0.9600366216525522,-0.23883421072709243
1499369110107,-0.05474937056534657,-0.9622339208056765,-0.23871213855191886
1499369110123,-0.05609216449225585,-0.9604028381780729,-0.2410315098802167
1499369110139,-0.05658045319295013,-0.9597924773022051,-0.24139772640573742
1499369110155,-0.056946669718470844,-0.9571068894483865,-0.240665293354696
1499369110171,-0.05865568017090084,-0.9568627450980394,-0.24005493247882814
1499369110187,-0.06024261844815726,-0.9562523842221715,-0.23871213855191886
1499369110203,-0.05999847409781012,-0.9569848172732129,-0.23920042725261315
1499369110219,-0.06024261844815726,-0.9574731059739072,-0.23920042725261315
1499369110235,-0.05889982452124798,-0.9582055390249486,-0.24505989166094455
1499369110251,-0.05889982452124798,-0.9579613946746015,-0.24591439688715955
1499369110267,-0.058533607995727266,-0.9562523842221715,-0.24884412909132525
1499369110283,-0.05877775234607441,-0.9577172503242544,-0.24884412909132525
1499369110299,-0.058289463645380124,-0.9560082398718244,-0.24603646906233312
1499369110315,-0.05780117494468584,-0.9562523842221715,-0.2418860151064317
1499369110331,-0.05535973144121442,-0.9561303120469979,-0.24090943770504314
1499369110347,-0.055970092317082276,-0.9583276112001222,-0.24090943770504314
1499369110363,-0.05658045319295013,-0.9579613946746015,-0.24090943770504314
1499369110379,-0.055848020141908705,-0.9580834668497751,-0.23785763332570387
1499369110395,-0.05658045319295013,-0.9577172503242544,-0.24139772640573742
1499369110411,-0.05780117494468584,-0.9577172503242544,-0.23883421072709243
1499369110427,-0.058289463645380124,-0.9573510337987337,-0.2368810559243153
1499369110443,-0.058533607995727266,-0.9579613946746015,-0.23834592202639815
1499369110459,-0.05767910276951227,-0.9561303120469979,-0.23968871595330743
1499369110475,-0.05877775234607441,-0.9577172503242544,-0.24139772640573742
1499369110491,-0.059876401922636546,-0.9590600442511636,-0.24371709773403527
1499369110507,-0.06024261844815726,-0.9591821164263372,-0.24469367513542384
1499369110523,-0.05889982452124798,-0.9583276112001222,-0.24469367513542384
1499369110539,-0.05951018539711583,-0.9584496833752958,-0.2418860151064317
1499369110555,-0.05865568017090084,-0.9594262607766844,-0.23907835507743957
1499369110571,-0.0567025253681237,-0.9586938277256429,-0.23700312809948887
1499369110587,-0.05792324711985941,-0.9583276112001222,-0.23358510719462888
1499369110603,-0.055725947966735134,-0.9558861676966508,-0.2348058289463646
1499369110619,-0.05487144274052014,-0.9563744563973451,-0.23443961242084388
1499369110635,-0.05609216449225585,-0.9567406729228658,-0.23651483939879459
1499369110651,-0.05535973144121442,-0.9589379720759901,-0.24139772640573742
1499369110667,-0.05658045319295013,-0.9610131990539408,-0.24054322117952243
1499369110683,-0.05609216449225585,-0.9599145494773786,-0.24347295338368813
1499369110699,-0.057190814068817986,-0.9604028381780729,-0.2439612420843824
1499369110715,-0.05767910276951227,-0.9557640955214772,-0.24213015945677885
1499369110731,-0.05877775234607441,-0.9566186007476922,-0.23846799420157172
1499369110747,-0.05804531929503298,-0.9575951781490808,-0.23785763332570387
1499369110763,-0.05621423666742942,-0.9594262607766844,-0.23651483939879459
1499369110779,-0.05767910276951227,-0.9599145494773786,-0.23529411764705888
1499369110795,-0.057312886243991557,-0.9600366216525522,-0.23651483939879459
1499369110811,-0.05877775234607441,-0.9604028381780729,-0.23846799420157172
1499369110827,-0.05767910276951227,-0.9597924773022051,-0.23797970550087744
1499369110843,-0.057068741893644415,-0.9557640955214772,-0.2394445716029603
1499369110859,-0.05816739147020655,-0.9586938277256429,-0.24029907682917528
1499369110875,-0.0567025253681237,-0.9569848172732129,-0.240665293354696
1499369110891,-0.0567025253681237,-0.9580834668497751,-0.24005493247882814
1499369110907,-0.055725947966735134,-0.9585717555504694,-0.241519798580911
1499369110923,-0.05523765926604085,-0.9596704051270315,-0.24127565423056385
1499369110939,-0.05560387579156156,-0.9580834668497751,-0.239810788128481
1499369110955,-0.05548180361638799,-0.9566186007476922,-0.23578240634775316
1499369110971,-0.0567025253681237,-0.9567406729228658,-0.23846799420157172
1499369110987,-0.05780117494468584,-0.9585717555504694,-0.2385900663767453
1499369111003,-0.057312886243991557,-0.9583276112001222,-0.23993286030365457
1499369111019,-0.05926604104676869,-0.9622339208056765,-0.24078736552986957
1499369111035,-0.05792324711985941,-0.9597924773022051,-0.24139772640573742
1499369111051,-0.05902189669642155,-0.9572289616235601,-0.2394445716029603
1499369111067,-0.056946669718470844,-0.9584496833752958,-0.239810788128481
1499369111083,-0.05780117494468584,-0.9584496833752958,-0.23712520027466244
1499369111099,-0.05743495841916513,-0.9600366216525522,-0.23834592202639815
1499369111115,-0.056946669718470844,-0.9578393224994279,-0.23736934462500958
1499369111131,-0.05535973144121442,-0.9590600442511636,-0.23700312809948887
1499369111147,-0.055725947966735134,-0.9599145494773786,-0.23968871595330743
1499369111163,-0.05645838101777656,-0.9579613946746015,-0.24005493247882814
1499369111179,-0.057312886243991557,-0.9568627450980394,-0.23822384985122458
1499369111195,-0.05743495841916513,-0.9558861676966508,-0.23651483939879459
1499369111211,-0.055848020141908705,-0.9572289616235601,-0.23797970550087744
1499369111227,-0.053772793163958,-0.9585717555504694,-0.2439612420843824
1499369111243,-0.05511558709086728,-0.9606469825284201,-0.24249637598229956
1499369111259,-0.05780117494468584,-0.9606469825284201,-0.2410315098802167
1499369111275,-0.057312886243991557,-0.9573510337987337,-0.237247272449836
1499369111291,-0.0567025253681237,-0.9567406729228658,-0.23639276722362101
1499369111307,-0.05816739147020655,-0.9553978789959565,-0.23468375677119102
1499369111323,-0.05804531929503298,-0.9571068894483865,-0.23456168459601745
1499369111339,-0.05804531929503298,-0.9596704051270315,-0.23627069504844744
1499369111355,-0.05792324711985941,-0.9604028381780729,-0.23822384985122458
1499369111371,-0.058533607995727266,-0.9607690547035936,-0.240665293354696
1499369111387,-0.05914396887159512,-0.9602807660028994,-0.2410315098802167
1499369111403,-0.059632257572289404,-0.9563744563973451,-0.24176394293125814
1499369111419,-0.05914396887159512,-0.9575951781490808,-0.24005493247882814
1499369111435,-0.058411535820553695,-0.9567406729228658,-0.23968871595330743
1499369111451,-0.05474937056534657,-0.9574731059739072,-0.23871213855191886
1499369111467,-0.05487144274052014,-0.9588158999008165,-0.23834592202639815
1499369111483,-0.05535973144121442,-0.9589379720759901,-0.2385900663767453
1499369111499,-0.05511558709086728,-0.9582055390249486,-0.23675898374914173
1499369111515,-0.05560387579156156,-0.9580834668497751,-0.23700312809948887
1499369111531,-0.05523765926604085,-0.9571068894483865,-0.2348058289463646
1499369111547,-0.057068741893644415,-0.9564965285725187,-0.2356603341725796
1499369111563,-0.05780117494468584,-0.9578393224994279,-0.23468375677119102
1499369111579,-0.0567025253681237,-0.9602807660028994,-0.2377355611505303
1499369111595,-0.0575570305943387,-0.9615014877546351,-0.23651483939879459
1499369111611,-0.05792324711985941,-0.9629663538567179,-0.23932249942778672
1499369111627,-0.058289463645380124,-0.9604028381780729,-0.23736934462500958
1499369111643,-0.059632257572289404,-0.9602807660028994,-0.2368810559243153
1499369111659,-0.058289463645380124,-0.9580834668497751,-0.23578240634775316
1499369111675,-0.05645838101777656,-0.9564965285725187,-0.23504997329671173
1499369111691,-0.05633630884260299,-0.9574731059739072,-0.2356603341725796
1499369111707,-0.055725947966735134,-0.9571068894483865,-0.23321889066910817
1499369111723,-0.057068741893644415,-0.9582055390249486,-0.23590447852292673
1499369111739,-0.05633630884260299,-0.9594262607766844,-0.23627069504844744
1499369111755,-0.05548180361638799,-0.9578393224994279,-0.23920042725261315
1499369111771,-0.05743495841916513,-0.9567406729228658,-0.23846799420157172
1499369111787,-0.0575570305943387,-0.9593041886015108,-0.2401770046540017
1499369111803,-0.05633630884260299,-0.9596704051270315,-0.23993286030365457
1499369111819,-0.057190814068817986,-0.9607690547035936,-0.23834592202639815
1499369111835,-0.05743495841916513,-0.9595483329518579,-0.23785763332570387
1499369111851,-0.05682459754329727,-0.9591821164263372,-0.2360265506981003
1499369111867,-0.055725947966735134,-0.9582055390249486,-0.23614862287327387
1499369111883,-0.05499351491569371,-0.9578393224994279,-0.2348058289463646
1499369111899,-0.05767910276951227,-0.9583276112001222,-0.2343175402456703
1499369111915,-0.057312886243991557,-0.9590600442511636,-0.2356603341725796
1499369111931,-0.05645838101777656,-0.9621118486305029,-0.2394445716029603
1499369111947,-0.05792324711985941,-0.9615014877546351,-0.23956664377813386
1499369111963,-0.0575570305943387,-0.9602807660028994,-0.23761348897535672
1499369111979,-0.058411535820553695,-0.9600366216525522,-0.23651483939879459
1499369111995,-0.05804531929503298,-0.9580834668497751,-0.23541618982223245
1499369112011,-0.05743495841916513,-0.9577172503242544,-0.23358510719462888
1499369112027,-0.057068741893644415,-0.9604028381780729,-0.23321889066910817
1499369112043,-0.05511558709086728,-0.9591821164263372,-0.2351720454718853
1499369112059,-0.05474937056534657,-0.9606469825284201,-0.23529411764705888
1499369112075,-0.05389486533913157,-0.9600366216525522,-0.23529411764705888
1499369112091,-0.05523765926604085,-0.9582055390249486,-0.23590447852292673
1499369112107,-0.05499351491569371,-0.9578393224994279,-0.237247272449836
1499369112123,-0.057312886243991557,-0.9575951781490808,-0.23712520027466244
1499369112139,-0.05780117494468584,-0.9593041886015108,-0.23761348897535672
1499369112155,-0.05682459754329727,-0.9601586938277258,-0.23932249942778672
1499369112171,-0.05682459754329727,-0.9586938277256429,-0.23846799420157172
1499369112187,-0.05780117494468584,-0.9596704051270315,-0.23712520027466244
1499369112203,-0.05780117494468584,-0.9590600442511636,-0.23614862287327387
1499369112219,-0.057068741893644415,-0.9596704051270315,-0.23443961242084388
1499369112235,-0.056946669718470844,-0.9591821164263372,-0.2356603341725796
1499369112251,-0.055848020141908705,-0.9599145494773786,-0.23651483939879459
1499369112267,-0.05487144274052014,-0.9572289616235601,-0.2385900663767453
1499369112283,-0.054383154039825854,-0.9578393224994279,-0.23871213855191886
1499369112299,-0.05426108186465228,-0.9563744563973451,-0.23956664377813386
1499369112315,-0.05609216449225585,-0.9580834668497751,-0.23663691157396816
1499369112331,-0.057190814068817986,-0.9575951781490808,-0.23553826199740602
1499369112347,-0.05621423666742942,-0.9608911268787672,-0.237247272449836
1499369112363,-0.05621423666742942,-0.9634546425574122,-0.2377355611505303
1499369112379,-0.055725947966735134,-0.9643091477836272,-0.2377355611505303
1499369112395,-0.05633630884260299,-0.9619897764553293,-0.2348058289463646
1499369112411,-0.057190814068817986,-0.9594262607766844,-0.2360265506981003
1499369112427,-0.058533607995727266,-0.9568627450980394,-0.2351720454718853
1499369112443,-0.057312886243991557,-0.9555199511711301,-0.23382925154497602
1499369112459,-0.05645838101777656,-0.9580834668497751,-0.23468375677119102
1499369112475,-0.05499351491569371,-0.9600366216525522,-0.237247272449836
1499369112491,-0.05535973144121442,-0.9600366216525522,-0.23785763332570387
1499369112507,-0.05609216449225585,-0.9616235599298086,-0.23504997329671173
1499369112523,-0.05645838101777656,-0.9610131990539408,-0.23846799420157172
1499369112539,-0.05682459754329727,-0.9589379720759901,-0.23797970550087744
1499369112555,-0.05743495841916513,-0.9597924773022051,-0.2356603341725796
1499369112571,-0.05658045319295013,-0.9588158999008165,-0.23492790112153816
1499369112587,-0.05645838101777656,-0.9606469825284201,-0.23370717936980245
1499369112603,-0.05535973144121442,-0.9582055390249486,-0.23504997329671173
1499369112619,-0.053162432288090145,-0.9596704051270315,-0.23578240634775316
1499369112635,-0.05413900968947871,-0.9596704051270315,-0.23675898374914173
1499369112651,-0.05474937056534657,-0.9611352712291144,-0.23627069504844744
1499369112667,-0.05548180361638799,-0.9594262607766844,-0.23675898374914173
1499369112683,-0.05548180361638799,-0.9579613946746015,-0.2348058289463646
1499369112699,-0.0567025253681237,-0.9590600442511636,-0.23443961242084388
1499369112715,-0.055725947966735134,-0.9607690547035936,-0.23614862287327387
1499369112731,-0.05743495841916513,-0.9607690547035936,-0.23504997329671173
1499369112747,-0.057068741893644415,-0.9601586938277258,-0.23529411764705888
1499369112763,-0.055970092317082276,-0.9596704051270315,-0.2401770046540017
1499369112779,-0.057312886243991557,-0.9590600442511636,-0.23920042725261315
1499369112795,-0.0567025253681237,-0.9582055390249486,-0.23614862287327387
1499369112811,-0.05511558709086728,-0.9579613946746015,-0.237247272449836
1499369112827,-0.052918287937743,-0.9563744563973451,-0.2368810559243153
1499369112843,-0.05255207141222229,-0.9585717555504694,-0.23907835507743957
1499369112859,-0.050598916609445155,-0.9608911268787672,-0.23578240634775316
1499369112875,-0.053162432288090145,-0.9596704051270315,-0.23553826199740602
1499369112891,-0.05169756618600729,-0.9602807660028994,-0.2301670862897689
1499369112907,-0.054505226214999425,-0.9591821164263372,-0.23089951934081032
1499369112923,-0.05560387579156156,-0.9610131990539408,-0.23114366369115746
1499369112939,-0.05523765926604085,-0.9608911268787672,-0.23126573586633103
1499369112955,-0.05523765926604085,-0.9645532921339743,-0.2330968184939346
1499369112971,-0.05499351491569371,-0.9634546425574122,-0.23248645761806674
1499369112987,-0.055970092317082276,-0.9626001373311972,-0.2334630350194553
1499369113003,-0.054505226214999425,-0.9590600442511636,-0.23285267414358746
1499369113019,-0.05389486533913157,-0.9584496833752958,-0.23297474631876103
1499369113035,-0.05487144274052014,-0.9580834668497751,-0.23126573586633103
1499369113051,-0.05255207141222229,-0.9595483329518579,-0.23236438544289317
1499369113067,-0.05218585488670158,-0.9593041886015108,-0.23504997329671173
1499369113083,-0.05145342183566015,-0.9607690547035936,-0.2322423132677196
1499369113099,-0.052063782711528006,-0.9604028381780729,-0.23004501411459533
1499369113115,-0.05267414358739586,-0.9591821164263372,-0.23041123064011604
1499369113131,-0.05352864881361086,-0.9601586938277258,-0.2301670862897689
1499369113147,-0.05401693751430514,-0.9613794155794615,-0.23089951934081032
1499369113163,-0.05511558709086728,-0.9606469825284201,-0.23297474631876103
1499369113179,-0.05352864881361086,-0.9627222095063708,-0.23321889066910817
1499369113195,-0.053284504463263715,-0.9627222095063708,-0.2330968184939346
1499369113211,-0.05267414358739586,-0.9597924773022051,-0.2330968184939346
1499369113227,-0.054383154039825854,-0.9601586938277258,-0.23370717936980245
1499369113243,-0.05426108186465228,-0.9595483329518579,-0.23541618982223245
1499369113259,-0.05352864881361086,-0.9606469825284201,-0.23407339589532317
1499369113275,-0.05365072098878443,-0.9594262607766844,-0.23273060196841389
1499369113291,-0.053040360112916574,-0.9589379720759901,-0.2330968184939346
1499369113307,-0.054505226214999425,-0.9606469825284201,-0.23504997329671173
1499369113323,-0.053040360112916574,-0.9611352712291144,-0.23443961242084388
1499369113339,-0.053772793163958,-0.9605249103532465,-0.23627069504844744
1499369113355,-0.05426108186465228,-0.9610131990539408,-0.2343175402456703
1499369113371,-0.052918287937743,-0.9604028381780729,-0.23675898374914173
1499369113387,-0.05389486533913157,-0.9608911268787672,-0.23553826199740602
1499369113403,-0.05365072098878443,-0.9611352712291144,-0.23382925154497602
1499369113419,-0.05279621576256943,-0.9606469825284201,-0.23456168459601745
1499369113435,-0.05389486533913157,-0.9607690547035936,-0.23443961242084388
1499369113451,-0.054383154039825854,-0.9601586938277258,-0.23651483939879459
1499369113467,-0.05548180361638799,-0.9612573434042879,-0.23492790112153816
1499369113483,-0.05474937056534657,-0.9584496833752958,-0.23358510719462888
1499369113499,-0.052063782711528006,-0.9574731059739072,-0.23297474631876103
1499369113515,-0.05279621576256943,-0.9574731059739072,-0.23504997329671173
1499369113531,-0.053772793163958,-0.9586938277256429,-0.23334096284428174
1499369113547,-0.05426108186465228,-0.9608911268787672,-0.2356603341725796
1499369113563,-0.053284504463263715,-0.9604028381780729,-0.23749141680018315
1499369113579,-0.051941710536354435,-0.9596704051270315,-0.23541618982223245
1499369113595,-0.053406576638437286,-0.9595483329518579,-0.2348058289463646
1499369113611,-0.05413900968947871,-0.9573510337987337,-0.23382925154497602
1499369113627,-0.05267414358739586,-0.9575951781490808,-0.23492790112153816
1499369113643,-0.05511558709086728,-0.9583276112001222,-0.2322423132677196
1499369113659,-0.055725947966735134,-0.9606469825284201,-0.23382925154497602
1499369113675,-0.05487144274052014,-0.9615014877546351,-0.2351720454718853
1499369113691,-0.05511558709086728,-0.9617456321049822,-0.23407339589532317
1499369113707,-0.05499351491569371,-0.9610131990539408,-0.23590447852292673
1499369113723,-0.05682459754329727,-0.9606469825284201,-0.23443961242084388
1499369113739,-0.05609216449225585,-0.9607690547035936,-0.2322423132677196
1499369113755,-0.05548180361638799,-0.9605249103532465,-0.23578240634775316
1499369113771,-0.05426108186465228,-0.9613794155794615,-0.2339513237201496
1499369113787,-0.053772793163958,-0.9605249103532465,-0.23627069504844744
1499369113803,-0.05267414358739586,-0.9600366216525522,-0.2351720454718853
1499369113819,-0.053040360112916574,-0.9586938277256429,-0.23443961242084388
1499369113835,-0.054627298390172996,-0.9590600442511636,-0.23041123064011604
1499369113851,-0.05365072098878443,-0.9593041886015108,-0.23248645761806674
1499369113867,-0.05365072098878443,-0.9593041886015108,-0.2339513237201496
1499369113883,-0.052918287937743,-0.9610131990539408,-0.23175402456702532
1499369113899,-0.054505226214999425,-0.9610131990539408,-0.23334096284428174
1499369113915,-0.05401693751430514,-0.9605249103532465,-0.23260852979324032
1499369113931,-0.05499351491569371,-0.9604028381780729,-0.2305333028152896
1499369113947,-0.054627298390172996,-0.9616235599298086,-0.2343175402456703
1499369113963,-0.05499351491569371,-0.9611352712291144,-0.2339513237201496
1499369113979,-0.054627298390172996,-0.9605249103532465,-0.2339513237201496
1499369113995,-0.05279621576256943,-0.9611352712291144,-0.23212024109254603
1499369114011,-0.05218585488670158,-0.9591821164263372,-0.23150988021667818
1499369114027,-0.05096513313496587,-0.9590600442511636,-0.23065537499046318
1499369114043,-0.05169756618600729,-0.9600366216525522,-0.2313878080415046
1499369114059,-0.05169756618600729,-0.9597924773022051,-0.23114366369115746
1499369114075,-0.05218585488670158,-0.9607690547035936,-0.22772564278629748
1499369114091,-0.05389486533913157,-0.9604028381780729,-0.23297474631876103
1499369114107,-0.05499351491569371,-0.9618677042801558,-0.23529411764705888
1499369114123,-0.05487144274052014,-0.9624780651560236,-0.23504997329671173
1499369114139,-0.05511558709086728,-0.9623559929808501,-0.23504997329671173
1499369114155,-0.05365072098878443,-0.9602807660028994,-0.2351720454718853
1499369114171,-0.054505226214999425,-0.9589379720759901,-0.23492790112153816
1499369114187,-0.05389486533913157,-0.9588158999008165,-0.23504997329671173
1499369114203,-0.05413900968947871,-0.9607690547035936,-0.22980086976424818
1499369114219,-0.051941710536354435,-0.9605249103532465,-0.2272373540856032
1499369114235,-0.05108720531013944,-0.9622339208056765,-0.2276035706111239
1499369114251,-0.05255207141222229,-0.9632104982070651,-0.22943465323872747
1499369114267,-0.05499351491569371,-0.9619897764553293,-0.22992294193942175
1499369114283,-0.055970092317082276,-0.9612573434042879,-0.23150988021667818
1499369114299,-0.05548180361638799,-0.9601586938277258,-0.23077744716563675
1499369114315,-0.05413900968947871,-0.9608911268787672,-0.23273060196841389
1499369114331,-0.05401693751430514,-0.9619897764553293,-0.23382925154497602
1499369114347,-0.053162432288090145,-0.9607690547035936,-0.23028915846494247
1499369114363,-0.05267414358739586,-0.9638208590829329,-0.2330968184939346
1499369114379,-0.051941710536354435,-0.9627222095063708,-0.23236438544289317
1499369114395,-0.05108720531013944,-0.9617456321049822,-0.22980086976424818
1499369114411,-0.05145342183566015,-0.9591821164263372,-0.23150988021667818
1499369114427,-0.05267414358739586,-0.9583276112001222,-0.22955672541390104
1499369114443,-0.05401693751430514,-0.9590600442511636,-0.2289463645380332
1499369114459,-0.054383154039825854,-0.9600366216525522,-0.2313878080415046
1499369114475,-0.05352864881361086,-0.9624780651560236,-0.23419546807049674
1499369114491,-0.055970092317082276,-0.9635767147325858,-0.23749141680018315
1499369114507,-0.05548180361638799,-0.9619897764553293,-0.23590447852292673
1499369114523,-0.05560387579156156,-0.9612573434042879,-0.23370717936980245
1499369114539,-0.05535973144121442,-0.9622339208056765,-0.23358510719462888
1499369114555,-0.05352864881361086,-0.9618677042801558,-0.23321889066910817
1499369114571,-0.05255207141222229,-0.9605249103532465,-0.22711528191042962
1499369114587,-0.05218585488670158,-0.9611352712291144,-0.22699320973525605
1499369114603,-0.050598916609445155,-0.9613794155794615,-0.22711528191042962
1499369114619,-0.0499885557335773,-0.9599145494773786,-0.2255283436331732
1499369114635,-0.049134050507362304,-0.9623559929808501,-0.22455176623178463
1499369114651,-0.052063782711528006,-0.9613794155794615,-0.2280918593118182
1499369114667,-0.05389486533913157,-0.9599145494773786,-0.22919050888838033
1499369114683,-0.053406576638437286,-0.9608911268787672,-0.2305333028152896
1499369114699,-0.052918287937743,-0.9629663538567179,-0.23273060196841389
1499369114715,-0.05426108186465228,-0.9646753643091479,-0.2348058289463646
1499369114731,-0.05633630884260299,-0.9643091477836272,-0.23700312809948887
1499369114747,-0.05621423666742942,-0.9615014877546351,-0.23700312809948887
1499369114763,-0.05548180361638799,-0.9608911268787672,-0.23468375677119102
1499369114779,-0.054505226214999425,-0.9591821164263372,-0.2318760967421989
1499369114795,-0.05426108186465228,-0.9584496833752958,-0.2296787975890746
1499369114811,-0.05279621576256943,-0.9589379720759901,-0.22870222018768604
1499369114827,-0.05242999923704872,-0.9627222095063708,-0.23285267414358746
1499369114843,-0.05267414358739586,-0.9633325703822386,-0.23382925154497602
1499369114859,-0.053162432288090145,-0.9627222095063708,-0.23150988021667818
1499369114875,-0.053040360112916574,-0.9621118486305029,-0.23212024109254603
1499369114891,-0.05426108186465228,-0.9613794155794615,-0.22772564278629748
1499369114907,-0.053772793163958,-0.9611352712291144,-0.22504005493247892
1499369114923,-0.05389486533913157,-0.9623559929808501,-0.22540627145799963
1499369114939,-0.05230792706187515,-0.9626001373311972,-0.2276035706111239
1499369114955,-0.05169756618600729,-0.9624780651560236,-0.2301670862897689
1499369114971,-0.05230792706187515,-0.9632104982070651,-0.2301670862897689
1499369114987,-0.053040360112916574,-0.9622339208056765,-0.2289463645380332
1499369115003,-0.053406576638437286,-0.9604028381780729,-0.22821393148699176
1499369115019,-0.05474937056534657,-0.9611352712291144,-0.22906843671320676
1499369115035,-0.053406576638437286,-0.9595483329518579,-0.2318760967421989
1499369115051,-0.054505226214999425,-0.9599145494773786,-0.23443961242084388
1499369115067,-0.05401693751430514,-0.9612573434042879,-0.2334630350194553
1499369115083,-0.053406576638437286,-0.9630884260318915,-0.23212024109254603
1499369115099,-0.05499351491569371,-0.9644312199588008,-0.23089951934081032
1499369115115,-0.05535973144121442,-0.9626001373311972,-0.23004501411459533
1499369115131,-0.055970092317082276,-0.9624780651560236,-0.22906843671320676
1499369115147,-0.05645838101777656,-0.9619897764553293,-0.23419546807049674
1499369115163,-0.05426108186465228,-0.9577172503242544,-0.22748149843595034
1499369115179,-0.053040360112916574,-0.9584496833752958,-0.2305333028152896
1499369115195,-0.05169756618600729,-0.9619897764553293,-0.22943465323872747
1499369115211,-0.05145342183566015,-0.9635767147325858,-0.23077744716563675
1499369115227,-0.0508430609597923,-0.9607690547035936,-0.22980086976424818
1499369115243,-0.05120927748531301,-0.9606469825284201,-0.2280918593118182
1499369115259,-0.05157549401083372,-0.9585717555504694,-0.22858014801251247
1499369115275,-0.05230792706187515,-0.9605249103532465,-0.22833600366216533
1499369115291,-0.05218585488670158,-0.9629663538567179,-0.22906843671320676
1499369115307,-0.053284504463263715,-0.9638208590829329,-0.22919050888838033
1499369115323,-0.05255207141222229,-0.9623559929808501,-0.23041123064011604
1499369115339,-0.053162432288090145,-0.9610131990539408,-0.22906843671320676
1499369115355,-0.053772793163958,-0.9612573434042879,-0.23077744716563675
1499369115371,-0.054505226214999425,-0.9599145494773786,-0.2293125810635539
1499369115387,-0.05474937056534657,-0.9601586938277258,-0.22821393148699176
1499369115403,-0.05389486533913157,-0.9616235599298086,-0.2301670862897689
1499369115419,-0.05401693751430514,-0.9611352712291144,-0.23028915846494247
1499369115435,-0.053772793163958,-0.9608911268787672,-0.23260852979324032
1499369115451,-0.05267414358739586,-0.9595483329518579,-0.22943465323872747
1499369115467,-0.053284504463263715,-0.9612573434042879,-0.23004501411459533
1499369115483,-0.05401693751430514,-0.9595483329518579,-0.22955672541390104
1499369115499,-0.05279621576256943,-0.9604028381780729,-0.2276035706111239
1499369115515,-0.05023270008392444,-0.9624780651560236,-0.2276035706111239
1499369115531,-0.0508430609597923,-0.9627222095063708,-0.22858014801251247
1499369115547,-0.05096513313496587,-0.9606469825284201,-0.23126573586633103
1499369115563,-0.0499885557335773,-0.9606469825284201,-0.22919050888838033
1499369115579,-0.051819638361180864,-0.9617456321049822,-0.22955672541390104
1499369115595,-0.05230792706187515,-0.9590600442511636,-0.2301670862897689
1499369115611,-0.053406576638437286,-0.9601586938277258,-0.22955672541390104
1499369115627,-0.051819638361180864,-0.9622339208056765,-0.22955672541390104
1499369115643,-0.05365072098878443,-0.96406500343328,-0.23407339589532317
1499369115659,-0.053284504463263715,-0.9638208590829329,-0.23065537499046318
1499369115675,-0.053406576638437286,-0.9618677042801558,-0.22943465323872747
1499369115691,-0.053406576638437286,-0.9601586938277258,-0.22626077668421463
1499369115707,-0.052918287937743,-0.9599145494773786,-0.2272373540856032
1499369115723,-0.052063782711528006,-0.9623559929808501,-0.22650492103456177
1499369115739,-0.05352864881361086,-0.9626001373311972,-0.22699320973525605
1499369115755,-0.05133134966048658,-0.9613794155794615,-0.22858014801251247
1499369115771,-0.05120927748531301,-0.9622339208056765,-0.22992294193942175
1499369115787,-0.05230792706187515,-0.9612573434042879,-0.22992294193942175
1499369115803,-0.05255207141222229,-0.9591821164263372,-0.2296787975890746
1499369115819,-0.05169756618600729,-0.9601586938277258,-0.22870222018768604
1499369115835,-0.05218585488670158,-0.9590600442511636,-0.22833600366216533
1499369115851,-0.05133134966048658,-0.9626001373311972,-0.2289463645380332
1499369115867,-0.051819638361180864,-0.9646753643091479,-0.22943465323872747
1499369115883,-0.05242999923704872,-0.9645532921339743,-0.23199816891737246
1499369115899,-0.05230792706187515,-0.9630884260318915,-0.22833600366216533
1499369115915,-0.05157549401083372,-0.9601586938277258,-0.22699320973525605
1499369115931,-0.054383154039825854,-0.9601586938277258,-0.2272373540856032
1499369115947,-0.054383154039825854,-0.9593041886015108,-0.22528419928282606
1499369115963,-0.051941710536354435,-0.9613794155794615,-0.2276035706111239
1499369115979,-0.05157549401083372,-0.9621118486305029,-0.23114366369115746
1499369115995,-0.05169756618600729,-0.9647974364843215,-0.2293125810635539
1499369116011,-0.052063782711528006,-0.9618677042801558,-0.2313878080415046
1499369116027,-0.05426108186465228,-0.9608911268787672,-0.22748149843595034
1499369116043,-0.05157549401083372,-0.9607690547035936,-0.22735942626077676
1499369116059,-0.05352864881361086,-0.9613794155794615,-0.22491798275730535
1499369116075,-0.05279621576256943,-0.9617456321049822,-0.22784771496147105
1499369116091,-0.0508430609597923,-0.9612573434042879,-0.2267490653849089
1499369116107,-0.050598916609445155,-0.9629663538567179,-0.22821393148699176
1499369116123,-0.05169756618600729,-0.9619897764553293,-0.22577248798352034
1499369116139,-0.052063782711528006,-0.9619897764553293,-0.2255283436331732
1499369116155,-0.051941710536354435,-0.9616235599298086,-0.2251621271076525
1499369116171,-0.05389486533913157,-0.9618677042801558,-0.22406347753109035
1499369116187,-0.053162432288090145,-0.9600366216525522,-0.2251621271076525
1499369116203,-0.051941710536354435,-0.9623559929808501,-0.2293125810635539
1499369116219,-0.05120927748531301,-0.9639429312581065,-0.23504997329671173
1499369116235,-0.054627298390172996,-0.9629663538567179,-0.23578240634775316
1499369116251,-0.05389486533913157,-0.9613794155794615,-0.23785763332570387
1499369116267,-0.053406576638437286,-0.9593041886015108,-0.2368810559243153
1499369116283,-0.05548180361638799,-0.9600366216525522,-0.23077744716563675
1499369116299,-0.05499351491569371,-0.9601586938277258,-0.23260852979324032
1499369116315,-0.05267414358739586,-0.9613794155794615,-0.2330968184939346
1499369116331,-0.053040360112916574,-0.9605249103532465,-0.23273060196841389
1499369116347,-0.05145342183566015,-0.9617456321049822,-0.2305333028152896
1499369116363,-0.0508430609597923,-0.9624780651560236,-0.2267490653849089
1499369116379,-0.05218585488670158,-0.9605249103532465,-0.22601663233386748
1499369116395,-0.052918287937743,-0.9613794155794615,-0.2258945601586939
1499369116411,-0.05133134966048658,-0.9618677042801558,-0.22357518883039607
1499369116427,-0.05035477225909801,-0.9616235599298086,-0.2238193331807432
1499369116443,-0.0508430609597923,-0.9623559929808501,-0.22784771496147105
1499369116459,-0.05035477225909801,-0.9624780651560236,-0.23114366369115746
1499369116475,-0.05279621576256943,-0.964919508659495,-0.2251621271076525
1499369116491,-0.053772793163958,-0.9645532921339743,-0.2267490653849089
1499369116507,-0.051819638361180864,-0.9615014877546351,-0.22687113756008248
1499369116523,-0.05218585488670158,-0.9611352712291144,-0.22577248798352034
1499369116539,-0.05230792706187515,-0.9632104982070651,-0.2258945601586939
1499369116555,-0.05242999923704872,-0.9630884260318915,-0.22735942626077676
1499369116571,-0.05255207141222229,-0.9619897764553293,-0.22870222018768604
1499369116587,-0.05230792706187515,-0.9639429312581065,-0.2289463645380332
1499369116603,-0.05279621576256943,-0.9608911268787672,-0.2280918593118182
1499369116619,-0.053162432288090145,-0.9605249103532465,-0.22906843671320676
1499369116635,-0.05255207141222229,-0.9583276112001222,-0.22626077668421463
1499369116651,-0.0508430609597923,-0.9610131990539408,-0.22613870450904106
1499369116667,-0.049256122682535874,-0.9608911268787672,-0.2293125810635539
1499369116682,-0.0508430609597923,-0.9645532921339743,-0.23041123064011604
1499369116698,-0.049500267032883016,-0.964919508659495,-0.22943465323872747
1499369116714,-0.051941710536354435,-0.9636987869077593,-0.22955672541390104
1499369116730,-0.05133134966048658,-0.9611352712291144,-0.2305333028152896
1499369116746,-0.05108720531013944,-0.9605249103532465,-0.22650492103456177
1499369116762,-0.05279621576256943,-0.9607690547035936,-0.22796978713664462
1499369116778,-0.05035477225909801,-0.9613794155794615,-0.22601663233386748
1499369116794,-0.0499885557335773,-0.9627222095063708,-0.22394140535591678
1499369116810,-0.0508430609597923,-0.9645532921339743,-0.22796978713664462
1499369116826,-0.04974441138323016,-0.964919508659495,-0.22833600366216533
1499369116842,-0.0508430609597923,-0.9629663538567179,-0.22735942626077676
1499369116858,-0.05096513313496587,-0.9602807660028994,-0.2267490653849089
1499369116874,-0.05011062790875087,-0.9604028381780729,-0.22504005493247892
1499369116890,-0.05120927748531301,-0.9632104982070651,-0.22455176623178463
1499369116906,-0.050476844434271584,-0.9623559929808501,-0.22650492103456177
1499369116922,-0.04986648355840373,-0.96406500343328,-0.2263828488593882
1499369116938,-0.04827954528114731,-0.9633325703822386,-0.22772564278629748
1499369116954,-0.04974441138323016,-0.9623559929808501,-0.22577248798352034
1499369116970,-0.04852368963149445,-0.9616235599298086,-0.22601663233386748
1499369116986,-0.05023270008392444,-0.9615014877546351,-0.2251621271076525
1499369117002,-0.048157473105973736,-0.9610131990539408,-0.22272068360418107
1499369117018,-0.04876783398184159,-0.9622339208056765,-0.22491798275730535
1499369117034,-0.04827954528114731,-0.9626001373311972,-0.22662699320973534
1499369117050,-0.048157473105973736,-0.9618677042801558,-0.2305333028152896
1499369117066,-0.05157549401083372,-0.9617456321049822,-0.22748149843595034
1499369117082,-0.05230792706187515,-0.9622339208056765,-0.22784771496147105
1499369117098,-0.05108720531013944,-0.9628442816815443,-0.22357518883039607
1499369117114,-0.05169756618600729,-0.9633325703822386,-0.22601663233386748
1499369117130,-0.0499885557335773,-0.9622339208056765,-0.2234531166552225
1499369117146,-0.049134050507362304,-0.9632104982070651,-0.22650492103456177
1499369117162,-0.04864576180666802,-0.964919508659495,-0.22577248798352034
1499369117178,-0.05023270008392444,-0.9623559929808501,-0.22821393148699176
1499369117194,-0.0508430609597923,-0.9600366216525522,-0.22699320973525605
1499369117210,-0.05145342183566015,-0.9595483329518579,-0.22601663233386748
1499369117226,-0.05011062790875087,-0.9613794155794615,-0.22650492103456177
1499369117242,-0.0508430609597923,-0.9629663538567179,-0.2263828488593882
1499369117258,-0.05023270008392444,-0.964919508659495,-0.22577248798352034
1499369117274,-0.04888990615701516,-0.9660181582360572,-0.2251621271076525
1499369117290,-0.04864576180666802,-0.9635767147325858,-0.22748149843595034
1499369117306,-0.04864576180666802,-0.9634546425574122,-0.2255283436331732
1499369117322,-0.04888990615701516,-0.9627222095063708,-0.22748149843595034
1499369117338,-0.049256122682535874,-0.9606469825284201,-0.22125581750209822
1499369117354,-0.04876783398184159,-0.9612573434042879,-0.22064545662623036
1499369117370,-0.049256122682535874,-0.9611352712291144,-0.22406347753109035
1499369117386,-0.04888990615701516,-0.9611352712291144,-0.22418554970626392
1499369117402,-0.05011062790875087,-0.96406500343328,-0.22796978713664462
1499369117418,-0.049378194857709445,-0.9658960860608836,-0.22601663233386748
1499369117434,-0.05120927748531301,-0.9641870756084536,-0.22735942626077676
1499369117450,-0.05011062790875087,-0.9635767147325858,-0.22394140535591678
1499369117466,-0.050598916609445155,-0.9630884260318915,-0.22406347753109035
1499369117482,-0.049378194857709445,-0.9607690547035936,-0.22308690012970178
1499369117498,-0.05255207141222229,-0.9616235599298086,-0.22333104448004892
1499369117514,-0.05096513313496587,-0.9624780651560236,-0.22504005493247892
1499369117530,-0.0499885557335773,-0.9619897764553293,-0.22455176623178463
1499369117546,-0.04888990615701516,-0.9607690547035936,-0.22528419928282606
1499369117562,-0.0470588235294116,-0.9633325703822386,-0.22455176623178463
1499369117578,-0.04876783398184159,-0.9624780651560236,-0.22601663233386748
1499369117594,-0.049500267032883016,-0.9618677042801558,-0.22442969405661106
1499369117610,-0.049378194857709445,-0.9615014877546351,-0.2289463645380332
1499369117626,-0.04876783398184159,-0.9617456321049822,-0.22504005493247892
1499369117642,-0.050720988784618726,-0.9632104982070651,-0.2263828488593882
1499369117658,-0.049256122682535874,-0.96406500343328,-0.23114366369115746
1499369117674,-0.0508430609597923,-0.9627222095063708,-0.2289463645380332
1499369117690,-0.05011062790875087,-0.9627222095063708,-0.2258945601586939
1499369117706,-0.05120927748531301,-0.9629663538567179,-0.22565041580834677
1499369117722,-0.049500267032883016,-0.9629663538567179,-0.2246738384069582
1499369117738,-0.048157473105973736,-0.9630884260318915,-0.22284275577935464
1499369117754,-0.048157473105973736,-0.9627222095063708,-0.22406347753109035
1499369117770,-0.049500267032883016,-0.9622339208056765,-0.22406347753109035
1499369117786,-0.04754711223010588,-0.9618677042801558,-0.22455176623178463
1499369117802,-0.05023270008392444,-0.9608911268787672,-0.2246738384069582
1499369117818,-0.05023270008392444,-0.9612573434042879,-0.2225986114290075
1499369117834,-0.05157549401083372,-0.9615014877546351,-0.22455176623178463
1499369117850,-0.050598916609445155,-0.9630884260318915,-0.22479591058213177
1499369117866,-0.04901197833218873,-0.9639429312581065,-0.22418554970626392
1499369117882,-0.04766918440527945,-0.9634546425574122,-0.22528419928282606
1499369117898,-0.04766918440527945,-0.9628442816815443,-0.22406347753109035
1499369117914,-0.04827954528114731,-0.9611352712291144,-0.22308690012970178
1499369117930,-0.049500267032883016,-0.9602807660028994,-0.2217441062027925
1499369117946,-0.049378194857709445,-0.9622339208056765,-0.2229648279545282
1499369117962,-0.049134050507362304,-0.9616235599298086,-0.22504005493247892
1499369117978,-0.04974441138323016,-0.9636987869077593,-0.22626077668421463
1499369117994,-0.04962233920805659,-0.9641870756084536,-0.22650492103456177
1499369118010,-0.04864576180666802,-0.96406500343328,-0.22528419928282606
1499369118026,-0.05035477225909801,-0.9638208590829329,-0.2234531166552225
1499369118042,-0.04962233920805659,-0.9636987869077593,-0.22333104448004892
1499369118058,-0.04876783398184159,-0.9630884260318915,-0.21942473487449465
1499369118074,-0.050598916609445155,-0.9629663538567179,-0.22479591058213177
1499369118090,-0.050720988784618726,-0.9629663538567179,-0.2229648279545282
1499369118106,-0.050476844434271584,-0.9630884260318915,-0.22491798275730535
1499369118122,-0.051819638361180864,-0.9634546425574122,-0.22601663233386748
1499369118138,-0.05011062790875087,-0.9626001373311972,-0.22528419928282606
1499369118154,-0.05011062790875087,-0.9616235599298086,-0.22601663233386748
1499369118170,-0.05133134966048658,-0.9634546425574122,-0.22687113756008248
1499369118186,-0.05011062790875087,-0.9621118486305029,-0.22101167315175108
1499369118202,-0.049378194857709445,-0.9608911268787672,-0.22223239490348679
1499369118218,-0.0499885557335773,-0.9626001373311972,-0.22833600366216533
1499369118234,-0.04974441138323016,-0.964919508659495,-0.22662699320973534
1499369118250,-0.04962233920805659,-0.9655298695353629,-0.2272373540856032
1499369118266,-0.0508430609597923,-0.9630884260318915,-0.2246738384069582
1499369118282,-0.05011062790875087,-0.9613794155794615,-0.2251621271076525
1499369118298,-0.049378194857709445,-0.9591821164263372,-0.22442969405661106
1499369118314,-0.049500267032883016,-0.9622339208056765,-0.2217441062027925
1499369118330,-0.049256122682535874,-0.9652857251850158,-0.22223239490348679
1499369118346,-0.04986648355840373,-0.9661402304112308,-0.22504005493247892
1499369118362,-0.05120927748531301,-0.9641870756084536,-0.22442969405661106
1499369118378,-0.05096513313496587,-0.9612573434042879,-0.22626077668421463
1499369118394,-0.05157549401083372,-0.9597924773022051,-0.22357518883039607
1499369118410,-0.05011062790875087,-0.9585717555504694,-0.2251621271076525
1499369118426,-0.050476844434271584,-0.9617456321049822,-0.22418554970626392
1499369118442,-0.0499885557335773,-0.9636987869077593,-0.22149996185244536
1499369118458,-0.05035477225909801,-0.9660181582360572,-0.22491798275730535
1499369118474,-0.048035400930800165,-0.96577401388571,-0.22528419928282606
1499369118490,-0.04901197833218873,-0.9636987869077593,-0.2246738384069582
1499369118506,-0.04974441138323016,-0.9613794155794615,-0.22247653925383393
1499369118522,-0.05096513313496587,-0.9606469825284201,-0.22211032272831321
1499369118538,-0.04876783398184159,-0.9605249103532465,-0.22235446707866036
1499369118554,-0.049134050507362304,-0.9590600442511636,-0.2225986114290075
1499369118570,-0.049256122682535874,-0.9632104982070651,-0.22491798275730535
1499369118586,-0.049256122682535874,-0.9647974364843215,-0.22650492103456177
1499369118602,-0.05108720531013944,-0.9650415808346686,-0.22601663233386748
1499369118618,-0.050598916609445155,-0.9630884260318915,-0.22577248798352034
1499369118634,-0.0508430609597923,-0.9613794155794615,-0.2258945601586939
1499369118650,-0.049500267032883016,-0.9627222095063708,-0.22333104448004892
1499369118666,-0.049256122682535874,-0.9627222095063708,-0.22113374532692465
1499369118682,-0.049134050507362304,-0.9634546425574122,-0.2238193331807432
1499369118698,-0.04864576180666802,-0.9635767147325858,-0.2246738384069582
1499369118714,-0.04827954528114731,-0.9608911268787672,-0.22626077668421463
1499369118730,-0.04901197833218873,-0.9623559929808501,-0.22406347753109035
1499369118746,-0.04840161745632088,-0.9628442816815443,-0.22418554970626392
1499369118762,-0.04888990615701516,-0.9635767147325858,-0.2246738384069582
1499369118778,-0.049256122682535874,-0.9618677042801558,-0.2229648279545282
1499369118794,-0.049256122682535874,-0.9621118486305029,-0.2217441062027925
1499369118810,-0.04986648355840373,-0.9645532921339743,-0.2238193331807432
1499369118826,-0.05035477225909801,-0.966628519111925,-0.2258945601586939
1499369118842,-0.05035477225909801,-0.9672388799877929,-0.22540627145799963
1499369118858,-0.04901197833218873,-0.964919508659495,-0.22442969405661106
1499369118874,-0.049256122682535874,-0.9632104982070651,-0.22064545662623036
1499369118890,-0.04876783398184159,-0.9601586938277258,-0.21930266269932108
1499369118906,-0.049256122682535874,-0.9606469825284201,-0.21832608529793252
1499369118922,-0.04779125658045302,-0.9636987869077593,-0.21844815747310609
1499369118938,-0.04742504005493231,-0.9651636530098422,-0.2188143739986268
1499369118954,-0.04766918440527945,-0.9660181582360572,-0.22211032272831321
1499369118970,-0.048035400930800165,-0.9644312199588008,-0.22565041580834677
1499369118986,-0.050720988784618726,-0.9643091477836272,-0.22333104448004892
1499369119002,-0.04962233920805659,-0.9622339208056765,-0.22687113756008248
1499369119018,-0.05389486533913157,-0.9633325703822386,-0.22491798275730535
1499369119034,-0.05255207141222229,-0.9622339208056765,-0.22223239490348679
1499369119050,-0.050476844434271584,-0.96406500343328,-0.22442969405661106
1499369119066,-0.04864576180666802,-0.9643091477836272,-0.2251621271076525
1499369119082,-0.04730296787975874,-0.9652857251850158,-0.2263828488593882
1499369119098,-0.047913328755626594,-0.9646753643091479,-0.22442969405661106
1499369119114,-0.04840161745632088,-0.9619897764553293,-0.22223239490348679
1499369119130,-0.0470588235294116,-0.9608911268787672,-0.2229648279545282
1499369119146,-0.04888990615701516,-0.9615014877546351,-0.22149996185244536
1499369119162,-0.04901197833218873,-0.9630884260318915,-0.22272068360418107
1499369119178,-0.04876783398184159,-0.9639429312581065,-0.22528419928282606
1499369119194,-0.04779125658045302,-0.9641870756084536,-0.22613870450904106
1499369119210,-0.049500267032883016,-0.9644312199588008,-0.22320897230487535
1499369119226,-0.049134050507362304,-0.9623559929808501,-0.2238193331807432
1499369119242,-0.04962233920805659,-0.9629663538567179,-0.2213778896772718
1499369119258,-0.049500267032883016,-0.9611352712291144,-0.22235446707866036
1499369119274,-0.0499885557335773,-0.9623559929808501,-0.22418554970626392
1499369119290,-0.049134050507362304,-0.96406500343328,-0.22308690012970178
1499369119306,-0.04852368963149445,-0.9624780651560236,-0.2225986114290075
1499369119322,-0.0470588235294116,-0.96406500343328,-0.22211032272831321
1499369119338,-0.04840161745632088,-0.9633325703822386,-0.21979095140001537
1499369119354,-0.04827954528114731,-0.9627222095063708,-0.2196688792248418
1499369119370,-0.04766918440527945,-0.9607690547035936,-0.22149996185244536
1499369119386,-0.04876783398184159,-0.9618677042801558,-0.22027924010070965
1499369119402,-0.048035400930800165,-0.9639429312581065,-0.22320897230487535
1499369119418,-0.04827954528114731,-0.9678492408636608,-0.22662699320973534
1499369119434,-0.04974441138323016,-0.9679713130388343,-0.2263828488593882
1499369119450,-0.050720988784618726,-0.9638208590829329,-0.22394140535591678
1499369119466,-0.05230792706187515,-0.9594262607766844,-0.2258945601586939
1499369119482,-0.0499885557335773,-0.9580834668497751,-0.22333104448004892
1499369119498,-0.047913328755626594,-0.9595483329518579,-0.22125581750209822
1499369119514,-0.04754711223010588,-0.9629663538567179,-0.21857022964827966
1499369119530,-0.04827954528114731,-0.9660181582360572,-0.2208896009765775
1499369119546,-0.04742504005493231,-0.966628519111925,-0.22113374532692465
1499369119562,-0.04852368963149445,-0.9665064469367515,-0.2243076218814375
1499369119578,-0.049134050507362304,-0.9647974364843215,-0.2229648279545282
1499369119594,-0.05035477225909801,-0.9606469825284201,-0.22186617837796607
1499369119610,-0.0499885557335773,-0.9600366216525522,-0.2200350957503625
1499369119626,-0.04962233920805659,-0.9613794155794615,-0.22198825055313964
1499369119642,-0.049500267032883016,-0.9632104982070651,-0.22308690012970178
1499369119658,-0.049500267032883016,-0.9661402304112308,-0.22540627145799963
1499369119674,-0.04864576180666802,-0.96577401388571,-0.22662699320973534
1499369119690,-0.046692607003890885,-0.9651636530098422,-0.22662699320973534
1499369119706,-0.045593957427328746,-0.9626001373311972,-0.2229648279545282
1499369119722,-0.049256122682535874,-0.9613794155794615,-0.22149996185244536
1499369119738,-0.049500267032883016,-0.9597924773022051,-0.2229648279545282
1499369119754,-0.048157473105973736,-0.9623559929808501,-0.2213778896772718
1499369119770,-0.04901197833218873,-0.9650415808346686,-0.22284275577935464
1499369119786,-0.049134050507362304,-0.9650415808346686,-0.22357518883039607
1499369119802,-0.04766918440527945,-0.9661402304112308,-0.22223239490348679
1499369119818,-0.04876783398184159,-0.9643091477836272,-0.2205233844510568
1499369119834,-0.04876783398184159,-0.9635767147325858,-0.21930266269932108
1499369119850,-0.049256122682535874,-0.9651636530098422,-0.22333104448004892
1499369119866,-0.050476844434271584,-0.9629663538567179,-0.22369726100556964
1499369119882,-0.047913328755626594,-0.9624780651560236,-0.22211032272831321
1499369119898,-0.04827954528114731,-0.9607690547035936,-0.2217441062027925
1499369119914,-0.047913328755626594,-0.9616235599298086,-0.22308690012970178
1499369119930,-0.04840161745632088,-0.9629663538567179,-0.21991302357518894
1499369119946,-0.049378194857709445,-0.9627222095063708,-0.2213778896772718
1499369119962,-0.0462043183031966,-0.9632104982070651,-0.22113374532692465
1499369119978,-0.04718089570458517,-0.9644312199588008,-0.22369726100556964
1499369119994,-0.04754711223010588,-0.9635767147325858,-0.22369726100556964
1499369120010,-0.04827954528114731,-0.9655298695353629,-0.22308690012970178
1499369120026,-0.04608224612802303,-0.964919508659495,-0.22247653925383393
1499369120042,-0.04742504005493231,-0.9630884260318915,-0.22162203402761893
1499369120058,-0.04754711223010588,-0.9630884260318915,-0.2200350957503625
1499369120074,-0.048157473105973736,-0.9608911268787672,-0.22101167315175108
1499369120090,-0.04779125658045302,-0.9613794155794615,-0.22040131227588322
1499369120106,-0.04901197833218873,-0.9633325703822386,-0.21893644617380037
1499369120122,-0.04901197833218873,-0.9646753643091479,-0.21857022964827966
1499369120138,-0.04718089570458517,-0.9647974364843215,-0.21576256961928753
1499369120154,-0.04852368963149445,-0.9656519417105365,-0.21857022964827966
1499369120170,-0.04974441138323016,-0.964919508659495,-0.2217441062027925
1499369120186,-0.04779125658045302,-0.9643091477836272,-0.22015716792553608
1499369120202,-0.04742504005493231,-0.9624780651560236,-0.2225986114290075
1499369120218,-0.04840161745632088,-0.9619897764553293,-0.22186617837796607
1499369120234,-0.04779125658045302,-0.9607690547035936,-0.22479591058213177
1499369120250,-0.04644846265354374,-0.9617456321049822,-0.2208896009765775
1499369120266,-0.046814679179064456,-0.9633325703822386,-0.2217441062027925
1499369120282,-0.0462043183031966,-0.9650415808346686,-0.21698329137102323
1499369120298,-0.045349813076981604,-0.9662623025864043,-0.21783779659723823
1499369120314,-0.04571602960250232,-0.9658960860608836,-0.2162508583199818
1499369120330,-0.04608224612802303,-0.964919508659495,-0.2205233844510568
1499369120346,-0.04644846265354374,-0.9650415808346686,-0.2213778896772718
1499369120362,-0.04852368963149445,-0.9626001373311972,-0.21991302357518894
1499369120378,-0.04876783398184159,-0.9616235599298086,-0.2208896009765775
1499369120394,-0.04754711223010588,-0.9634546425574122,-0.22064545662623036
1499369120410,-0.04840161745632088,-0.9635767147325858,-0.22235446707866036
1499369120426,-0.04779125658045302,-0.9635767147325858,-0.2200350957503625
1499369120442,-0.04754711223010588,-0.9639429312581065,-0.2196688792248418
1499369120458,-0.046814679179064456,-0.9658960860608836,-0.22015716792553608
1499369120474,-0.045471885252155175,-0.9645532921339743,-0.21698329137102323
1499369120490,-0.04693675135423803,-0.9634546425574122,-0.21991302357518894
1499369120506,-0.04718089570458517,-0.9641870756084536,-0.2191805905241475
1499369120522,-0.04596017395284946,-0.9612573434042879,-0.22027924010070965
1499369120538,-0.0470588235294116,-0.9606469825284201,-0.22040131227588322
1499369120554,-0.049500267032883016,-0.9616235599298086,-0.22113374532692465
1499369120570,-0.049134050507362304,-0.9662623025864043,-0.2255283436331732
1499369120586,-0.049378194857709445,-0.9684596017395286,-0.2238193331807432
1499369120602,-0.049134050507362304,-0.9687037460898758,-0.22455176623178463
1499369120618,-0.046814679179064456,-0.9667505912870986,-0.22015716792553608
1499369120634,-0.04742504005493231,-0.9639429312581065,-0.22027924010070965
1499369120650,-0.04827954528114731,-0.9630884260318915,-0.21808194094758537
1499369120666,-0.047913328755626594,-0.9627222095063708,-0.21857022964827966
1499369120682,-0.04718089570458517,-0.9611352712291144,-0.21661707484550252
1499369120698,-0.049378194857709445,-0.9611352712291144,-0.21564049744411395
1499369120714,-0.04974441138323016,-0.9628442816815443,-0.2167391470206761
1499369120730,-0.048035400930800165,-0.964919508659495,-0.21832608529793252
1499369120746,-0.04779125658045302,-0.9673609521629665,-0.21893644617380037
1499369120762,-0.048157473105973736,-0.9667505912870986,-0.22101167315175108
1499369120778,-0.04754711223010588,-0.9672388799877929,-0.22040131227588322
1499369120794,-0.04754711223010588,-0.9644312199588008,-0.21930266269932108
1499369120810,-0.04608224612802303,-0.9632104982070651,-0.21808194094758537
1499369120826,-0.04693675135423803,-0.9626001373311972,-0.21857022964827966
1499369120842,-0.04583810177767589,-0.9627222095063708,-0.21930266269932108
1499369120858,-0.046814679179064456,-0.9617456321049822,-0.22027924010070965
1499369120874,-0.0462043183031966,-0.9635767147325858,-0.21905851834897394
1499369120890,-0.045593957427328746,-0.964919508659495,-0.21954680704966822
1499369120906,-0.04608224612802303,-0.9658960860608836,-0.21979095140001537
1499369120922,-0.045349813076981604,-0.9660181582360572,-0.22308690012970178
1499369120938,-0.046814679179064456,-0.9647974364843215,-0.22418554970626392
1499369120954,-0.0508430609597923,-0.9633325703822386,-0.2200350957503625
1499369120970,-0.04840161745632088,-0.9624780651560236,-0.2191805905241475
1499369120986,-0.049500267032883016,-0.9636987869077593,-0.2196688792248418
1499369121002,-0.04779125658045302,-0.9644312199588008,-0.22027924010070965
1499369121018,-0.047913328755626594,-0.96577401388571,-0.2179598687724118
1499369121034,-0.04644846265354374,-0.9655298695353629,-0.21869230182345323
1499369121050,-0.04644846265354374,-0.9646753643091479,-0.22027924010070965
1499369121066,-0.04583810177767589,-0.96406500343328,-0.21942473487449465
1499369121082,-0.04742504005493231,-0.9632104982070651,-0.21600671396963467
1499369121098,-0.04596017395284946,-0.9624780651560236,-0.21783779659723823
1499369121114,-0.04730296787975874,-0.9624780651560236,-0.21734950789654395
1499369121130,-0.04718089570458517,-0.9643091477836272,-0.21844815747310609
1499369121146,-0.0470588235294116,-0.968337529564355,-0.22149996185244536
1499369121162,-0.046814679179064456,-0.9662623025864043,-0.22125581750209822
1499369121178,-0.049256122682535874,-0.9671168078126193,-0.2200350957503625
1499369121194,-0.04864576180666802,-0.9633325703822386,-0.21869230182345323
1499369121210,-0.04876783398184159,-0.9634546425574122,-0.21612878614480824
1499369121226,-0.04852368963149445,-0.9630884260318915,-0.2175936522468911
1499369121242,-0.04730296787975874,-0.9646753643091479,-0.21686121919584966
1499369121258,-0.04693675135423803,-0.9619897764553293,-0.21991302357518894
1499369121274,-0.04583810177767589,-0.9641870756084536,-0.21832608529793252
1499369121290,-0.046814679179064456,-0.964919508659495,-0.22125581750209822
1499369121306,-0.04596017395284946,-0.9663843747615779,-0.2217441062027925
1499369121322,-0.0462043183031966,-0.9660181582360572,-0.21722743572137038
1499369121338,-0.04693675135423803,-0.9639429312581065,-0.21600671396963467
1499369121354,-0.046692607003890885,-0.9629663538567179,-0.21405355916685753
1499369121370,-0.04473945220111375,-0.9611352712291144,-0.21478599221789896
1499369121386,-0.04364080262455161,-0.9660181582360572,-0.2146639200427254
1499369121402,-0.044007019150072324,-0.9669947356374458,-0.21478599221789896
1499369121418,-0.045349813076981604,-0.9690699626153965,-0.21637293049515538
1499369121434,-0.047913328755626594,-0.9651636530098422,-0.21832608529793252
1499369121450,-0.04644846265354374,-0.9619897764553293,-0.22040131227588322
1499369121466,-0.049134050507362304,-0.9626001373311972,-0.21991302357518894
1499369121482,-0.04852368963149445,-0.9627222095063708,-0.21808194094758537
1499369121498,-0.047913328755626594,-0.9667505912870986,-0.21576256961928753
1499369121514,-0.0470588235294116,-0.9668726634622722,-0.21905851834897394
1499369121530,-0.046570534828717314,-0.9677271686884872,-0.21942473487449465
1499369121546,-0.046814679179064456,-0.9667505912870986,-0.21722743572137038
1499369121562,-0.04608224612802303,-0.9655298695353629,-0.21808194094758537
1499369121578,-0.04730296787975874,-0.9639429312581065,-0.2162508583199818
1499369121594,-0.04632639047837017,-0.9610131990539408,-0.2171053635461968
1499369121610,-0.04498359655146089,-0.9610131990539408,-0.21783779659723823
1499369121626,-0.04571602960250232,-0.9644312199588008,-0.22040131227588322
1499369121642,-0.045349813076981604,-0.9636987869077593,-0.22076752880140393
1499369121658,-0.04473945220111375,-0.9651636530098422,-0.2229648279545282
1499369121674,-0.04388494697489875,-0.9654077973601893,-0.2129549095902954
1499369121690,-0.04486152437628732,-0.9650415808346686,-0.21991302357518894
1499369121706,-0.04608224612802303,-0.9658960860608836,-0.2208896009765775
1499369121722,-0.04718089570458517,-0.9676050965133136,-0.21527428091859324
1499369121738,-0.04571602960250232,-0.9668726634622722,-0.21820401312275894
1499369121754,-0.045349813076981604,-0.9645532921339743,-0.21698329137102323
1499369121770,-0.04583810177767589,-0.9622339208056765,-0.21747158007171752
1499369121786,-0.045349813076981604,-0.9610131990539408,-0.2162508583199818
1499369121802,-0.045349813076981604,-0.9639429312581065,-0.21515220874341967
1499369121818,-0.04486152437628732,-0.9646753643091479,-0.21600671396963467
1499369121834,-0.04522774090180803,-0.9673609521629665,-0.21747158007171752
1499369121850,-0.045593957427328746,-0.9687037460898758,-0.21734950789654395
1499369121866,-0.04486152437628732,-0.9685816739147022,-0.2188143739986268
1499369121882,-0.04632639047837017,-0.9667505912870986,-0.2188143739986268
1499369121898,-0.04632639047837017,-0.9633325703822386,-0.2158846417944611
1499369121914,-0.04742504005493231,-0.9619897764553293,-0.2146639200427254
1499369121930,-0.04644846265354374,-0.9615014877546351,-0.21490806439307253
1499369121946,-0.04583810177767589,-0.9632104982070651,-0.2196688792248418
1499369121962,-0.044251163500419466,-0.9660181582360572,-0.21869230182345323
1499369121978,-0.0432745860990309,-0.9684596017395286,-0.2158846417944611
1499369121994,-0.044129091325245895,-0.9690699626153965,-0.21649500267032895
1499369122010,-0.044007019150072324,-0.9679713130388343,-0.21808194094758537
1499369122026,-0.04461738002594018,-0.9635767147325858,-0.21832608529793252
1499369122042,-0.04644846265354374,-0.9617456321049822,-0.21857022964827966
1499369122058,-0.04730296787975874,-0.9618677042801558,-0.21722743572137038
1499369122074,-0.04583810177767589,-0.9616235599298086,-0.21600671396963467
1499369122090,-0.045471885252155175,-0.9635767147325858,-0.21490806439307253
1499369122106,-0.04510566872663446,-0.9667505912870986,-0.2138094148165104
1499369122122,-0.04498359655146089,-0.9677271686884872,-0.21551842526894038
1499369122138,-0.04461738002594018,-0.966628519111925,-0.21783779659723823
1499369122154,-0.04461738002594018,-0.9658960860608836,-0.21734950789654395
1499369122170,-0.045593957427328746,-0.9634546425574122,-0.21991302357518894
1499369122186,-0.04583810177767589,-0.9611352712291144,-0.21783779659723823
1499369122202,-0.044129091325245895,-0.9627222095063708,-0.21747158007171752
1499369122218,-0.04522774090180803,-0.9639429312581065,-0.2175936522468911
1499369122234,-0.045349813076981604,-0.964919508659495,-0.21734950789654395
