Timestamp (ms),Gyro X (°/s),Gyro Y (°/s),Gyro Z (°/s)
1499369096909,6.073090714885211,0.2746623941404778,0.45777065690094787
1499369096925,11.688410772869474,1.3122758831159445,0.15259021896690683
1499369096941,16.1440451667047,1.9226367589837992,-0.33569848172737693
1499369096957,20.17242694743254,2.655069810025225,-0.8239871824216607
1499369096973,20.17242694743254,4.486152437628789,-0.7629510948347615
1499369096989,14.740215152208748,3.997863736934505,-1.6174563210497581
1499369097005,8.087281605249018,2.410925459678083,-3.4485389486533222
1499369097021,8.697642481116873,4.242008087281647,-5.401693751430457
1499369097037,16.510261692225413,7.17174029144735,-7.660028992141633
1499369097053,18.463416495002548,8.697642481116873,-9.369039444571627
1499369097069,7.049668116273779,6.683451590753066,-10.223544670786623
1499369097085,-11.505302510109004,3.2654306858930795,-10.101472495613052
1499369097101,-28.229190508888223,1.3122758831159445,-8.819714656290444
1499369097117,-34.271763179980326,-0.7629510948347615,-7.4158846417944915
1499369097133,-28.96162355992965,-2.7161058976118966,-6.439307240405924
1499369097149,-15.899900816357558,-1.6784924086366573,-5.401693751430457
1499369097165,5.3406576638437855,2.4719615472647547,-4.669260700389032
1499369097181,29.694056610971074,8.880750743877343,-3.814755474174035
1499369097197,48.85938811322194,14.312962539101136,-3.4485389486533222
1499369097213,56.48889906157001,15.716792553597315,-3.2043945983061803
1499369097229,46.662088960097435,12.726024261844714,-2.288853284504512
1499369097245,24.07873655298681,6.073090714885211,-0.8850232700083325
1499369097261,-1.8005645838102282,-1.3122758831159445,0.5798428320745188
1499369097277,-22.247653925383247,-5.95101853971164,2.105745021744042
1499369097293,-27.92401007095441,-6.378271152819025,3.2043945983061803
1499369097309,-18.402380407415876,-3.2654306858930795,4.058899824521177
1499369097325,0.5188067444876197,1.6784924086366573,4.486152437628789
1499369097341,23.346303501945386,6.744487678339738,4.364080262455218
1499369097357,40.55848020141889,10.711833371480907,3.997863736934505
1499369097373,46.17380025940315,12.726024261844714,3.814755474174035
1499369097389,38.971541924162466,11.688410772869474,3.7537193865873633
1499369097405,21.27107652399468,7.965209430075447,3.814755474174035
1499369097421,0.09155413138023505,3.0212863355459376,4.303044174868319
1499369097437,-17.730983443961122,-0.8850232700083325,4.974441138323073
1499369097453,-26.52018005645823,-2.410925459678083,5.584802014190927
1499369097469,-24.26184481574728,-1.6174563210497581,6.073090714885211
1499369097485,-12.909132524605184,0.3967345693140487,6.134126802471883
1499369097501,3.2043945983061803,3.692683299000464,6.195162890058782
1499369097517,18.70756084534969,7.049668116273779,6.134126802471883
1499369097533,31.036850537880355,9.246967269398056,5.828946364538069
1499369097549,37.01838712138533,10.345616845960194,5.523765926604028
1499369097565,34.76005188067438,10.223544670786623,5.096513313496644
1499369097581,25.48256656748299,8.51453421835663,4.60822461280236
1499369097597,11.932555123216616,5.401693751430457,3.997863736934505
1499369097613,-1.4343480582895154,1.8005645838102282,3.2654306858930795
1499369097629,-10.89494163424115,-1.3733119707026162,2.4719615472647547
1499369097645,-12.726024261844714,-2.7771419851987957,2.166781109330941
1499369097661,-4.42511635004189,-1.6784924086366573,1.8616006713969
1499369097677,11.627374685282575,2.04470893415737,1.5564202334630863
1499369097693,30.853742275120112,6.378271152819025,0.8239871824216607
1499369097709,44.7089341573203,10.040436408026153,0.15259021896690683
1499369097725,46.29587243457672,12.115663385976859,-0.09155413138023505
1499369097741,36.95735103379866,11.20012207217519,-0.15259021896690683
1499369097757,19.195849546043974,8.148317692835917,0.09155413138023505
1499369097773,-1.0070954451819034,4.486152437628789,0.6408789196611906
1499369097789,-16.937514305333025,1.6174563210497581,1.2512397955290453
1499369097805,-24.994277866788707,0.3967345693140487,1.6174563210497581
1499369097821,-23.651483939879427,0.9460593575952316,1.6174563210497581
1499369097837,-13.946746013580423,2.7771419851987957,1.5564202334630863
1499369097853,1.3122758831159445,5.3406576638437855,1.3122758831159445
1499369097869,17.730983443961122,8.392462043183059,1.0070954451819034
1499369097885,30.060273136491787,11.261158159761862,0.7629510948347615
1499369097901,34.76005188067438,12.542915999084471,0.7629510948347615
1499369097917,29.999237048905115,11.261158159761862,0.7019150072480898
1499369097933,16.998550392919697,7.476920729381163,0.8239871824216607
1499369097949,0.7629510948347615,2.8381780727854675,1.0681315327688026
1499369097965,-12.726024261844714,-0.8239871824216607,1.0681315327688026
1499369097981,-19.195849546043974,-2.288853284504512,1.3122758831159445
1499369097997,-16.937514305333025,-1.4953841458761872,1.3122758831159445
1499369098013,-6.805523765926637,0.9460593575952316,1.2512397955290453
1499369098029,6.500343327992596,4.119935912108076,1.0681315327688026
1499369098045,17.79201953154802,6.8665598535133086,0.8239871824216607
1499369098061,23.041123064011572,8.575570305943302,0.7019150072480898
1499369098077,20.904859998473967,8.33142595559616,0.5798428320745188
1499369098093,13.031204699778755,5.889982452124741,0.5188067444876197
1499369098109,2.166781109330941,2.04470893415737,0.33569848172737693
1499369098125,-7.782101167315204,-1.6784924086366573,0.213626306553806
1499369098141,-12.542915999084471,-3.3875028610666504,0.213626306553806
1499369098157,-9.979400320439481,-2.655069810025225,0.15259021896690683
1499369098173,-2.04470893415737,-0.5188067444876197,-0.03051804379333589
1499369098189,7.476920729381163,1.4953841458761872,-0.3967345693140487
1499369098205,15.228503852903032,2.227817196917613,-0.7019150072480898
1499369098221,19.623102159151586,2.3498893720911838,-0.8239871824216607
1499369098237,21.087968261234437,2.4719615472647547,-0.6408789196611906
1499369098253,19.562066071564686,2.532997634851654,-0.6408789196611906
1499369098269,14.862287327382319,1.9226367589837992,-0.7019150072480898
1499369098285,8.392462043183059,0.2746623941404778,-0.6408789196611906
1499369098301,1.739528496223329,-1.6784924086366573,-0.5798428320745188
1499369098317,-2.410925459678083,-2.7161058976118966,-0.45777065690094787
1499369098333,-3.0823224231326094,-2.4719615472647547,-0.3967345693140487
1499369098349,-0.33569848172737693,-1.1902037079423735,-0.213626306553806
1499369098365,4.974441138323073,0.3967345693140487,-0.09155413138023505
1499369098381,9.979400320439481,1.6784924086366573,-0.09155413138023505
1499369098397,11.993591210803288,2.105745021744042,-0.09155413138023505
1499369098413,10.833905546654478,1.739528496223329,0.09155413138023505
1499369098429,7.476920729381163,0.9460593575952316,0.213626306553806
1499369098445,3.936827649347606,0.213626306553806,0.5188067444876197
1499369098461,1.1902037079423735,-0.2746623941404778,0.7019150072480898
1499369098477,-0.3967345693140487,-0.5188067444876197,0.8239871824216607
1499369098493,-0.8850232700083325,-0.5188067444876197,0.7629510948347615
1499369098509,-0.03051804379333589,-0.2746623941404778,0.6408789196611906
1499369098525,1.983672846570471,0.2746623941404778,0.45777065690094787
1499369098541,4.486152437628789,0.9460593575952316,0.2746623941404778
1499369098557,6.683451590753066,1.3733119707026162,0.3967345693140487
1499369098573,7.965209430075447,1.5564202334630863,0.5188067444876197
1499369098589,8.392462043183059,1.6784924086366573,0.7019150072480898
1499369098605,7.354848554207592,1.3733119707026162,0.8239871824216607
1499369098621,5.0354772259097444,0.6408789196611906,0.8239871824216607
1499369098637,2.4719615472647547,-0.33569848172737693,0.8850232700083325
1499369098653,0.5798428320745188,-0.9460593575952316,0.7629510948347615
1499369098669,0.7019150072480898,-0.8850232700083325,0.6408789196611906
1499369098685,2.7771419851987957,-0.45777065690094787,0.45777065690094787
1499369098701,5.706874189364498,0.09155413138023505,0.33569848172737693
1499369098717,8.33142595559616,0.5188067444876197,0.2746623941404778
1499369098733,9.85732814526591,0.8850232700083325,0.15259021896690683
1499369098749,9.55214770733187,0.8239871824216607,0.213626306553806
1499369098765,7.782101167315204,0.3967345693140487,0.2746623941404778
1499369098781,5.0354772259097444,-0.2746623941404778,0.2746623941404778
1499369098797,2.5940337224383256,-0.8239871824216607,0.33569848172737693
1499369098813,1.2512397955290453,-1.1291676203554744,0.33569848172737693
1499369098829,1.1902037079423735,-1.0681315327688026,0.3967345693140487
1499369098845,2.166781109330941,-0.8239871824216607,0.45777065690094787
1499369098861,4.42511635004189,-0.33569848172737693,0.45777065690094787
1499369098877,7.4158846417944915,0.33569848172737693,0.5798428320745188
1499369098893,9.430075532158298,1.0070954451819034,0.5798428320745188
1499369098909,9.796292057679011,1.1902037079423735,0.6408789196611906
1499369098925,8.270389868009488,0.7019150072480898,0.5798428320745188
1499369098941,5.462729839017356,-0.03051804379333589,0.5798428320745188
1499369098957,2.532997634851654,-0.7629510948347615,0.5188067444876197
1499369098973,0.5188067444876197,-1.1902037079423735,0.5798428320745188
1499369098989,-0.03051804379333589,-1.3122758831159445,0.6408789196611906
1499369099005,1.3733119707026162,-0.9460593575952316,0.6408789196611906
1499369099021,4.058899824521177,-0.2746623941404778,0.5798428320745188
1499369099037,6.256198977645454,0.15259021896690683,0.5188067444876197
1499369099053,7.476920729381163,0.33569848172737693,0.5188067444876197
1499369099069,7.721065079728305,0.3967345693140487,0.5798428320745188
1499369099085,7.17174029144735,0.2746623941404778,0.5798428320745188
1499369099101,5.828946364538069,-0.03051804379333589,0.5798428320745188
1499369099117,4.242008087281647,-0.45777065690094787,0.5798428320745188
1499369099133,2.8381780727854675,-0.6408789196611906,0.6408789196611906
1499369099149,2.3498893720911838,-0.6408789196611906,0.7629510948347615
1499369099165,3.0823224231326094,-0.3967345693140487,0.8239871824216607
1499369099181,4.364080262455218,-0.09155413138023505,0.8850232700083325
1499369099197,5.523765926604028,0.15259021896690683,0.9460593575952316
1499369099213,6.256198977645454,0.2746623941404778,0.8239871824216607
1499369099229,6.195162890058782,0.213626306553806,0.5798428320745188
1499369099245,5.096513313496644,-0.03051804379333589,0.5188067444876197
1499369099261,3.936827649347606,-0.5798428320745188,0.45777065690094787
1499369099277,3.570611123826893,-0.8239871824216607,0.33569848172737693
1499369099293,3.7537193865873633,-0.7019150072480898,0.45777065690094787
1499369099309,4.669260700389032,-0.2746623941404778,0.45777065690094787
1499369099325,5.584802014190927,-0.09155413138023505,0.33569848172737693
1499369099341,5.584802014190927,-0.09155413138023505,0.3967345693140487
1499369099357,5.2185854886702145,-0.2746623941404778,0.45777065690094787
1499369099373,4.852368963149502,-0.33569848172737693,0.5188067444876197
1499369099389,4.9134050507361735,-0.33569848172737693,0.5188067444876197
1499369099405,4.852368963149502,-0.213626306553806,0.5798428320745188
1499369099421,4.852368963149502,-0.09155413138023505,0.6408789196611906
1499369099437,4.791332875562603,-0.15259021896690683,0.6408789196611906
1499369099453,4.60822461280236,-0.2746623941404778,0.6408789196611906
1499369099469,4.42511635004189,-0.2746623941404778,0.5798428320745188
1499369099485,4.486152437628789,-0.213626306553806,0.5188067444876197
1499369099501,4.852368963149502,0.09155413138023505,0.5798428320745188
1499369099517,5.462729839017356,0.213626306553806,0.5188067444876197
1499369099533,5.462729839017356,0.03051804379333589,0.5188067444876197
1499369099549,4.730296787975931,-0.213626306553806,0.6408789196611906
1499369099565,4.058899824521177,-0.45777065690094787,0.6408789196611906
1499369099581,3.570611123826893,-0.5798428320745188,0.6408789196611906
1499369099597,4.119935912108076,-0.45777065690094787,0.6408789196611906
1499369099613,4.852368963149502,-0.15259021896690683,0.6408789196611906
1499369099629,5.645838101777599,0.03051804379333589,0.5188067444876197
1499369099645,6.195162890058782,0.09155413138023505,0.5188067444876197
1499369099661,5.706874189364498,0.09155413138023505,0.5188067444876197
1499369099677,5.2185854886702145,-0.09155413138023505,0.5798428320745188
1499369099693,5.0354772259097444,-0.09155413138023505,0.5798428320745188
1499369099709,4.852368963149502,0.09155413138023505,0.7019150072480898
1499369099725,4.669260700389032,0.15259021896690683,0.8239871824216607
1499369099741,4.119935912108076,-0.15259021896690683,0.8239871824216607
1499369099757,3.570611123826893,-0.3967345693140487,0.8239871824216607
1499369099773,3.2043945983061803,-0.3967345693140487,0.5798428320745188
1499369099789,3.5095750362402214,-0.2746623941404778,0.3967345693140487
1499369099805,4.058899824521177,-0.2746623941404778,0.213626306553806
1499369099821,4.730296787975931,-0.33569848172737693,0.213626306553806
1499369099837,5.3406576638437855,-0.2746623941404778,0.33569848172737693
1499369099853,6.012054627298312,-0.03051804379333589,0.3967345693140487
1499369099869,6.195162890058782,0.15259021896690683,0.45777065690094787
1499369099885,5.95101853971164,0.03051804379333589,0.3967345693140487
1499369099901,5.584802014190927,-0.2746623941404778,0.33569848172737693
1499369099917,4.852368963149502,-0.3967345693140487,0.3967345693140487
1499369099933,4.364080262455218,-0.45777065690094787,0.45777065690094787
1499369099949,4.242008087281647,-0.45777065690094787,0.45777065690094787
1499369099965,4.119935912108076,-0.213626306553806,0.45777065690094787
1499369099981,4.547188525215461,-0.09155413138023505,0.45777065690094787
1499369099997,5.096513313496644,-0.15259021896690683,0.3967345693140487
1499369100013,5.2185854886702145,-0.213626306553806,0.3967345693140487
1499369100029,5.0354772259097444,-0.33569848172737693,0.33569848172737693
1499369100045,4.669260700389032,-0.5798428320745188,0.15259021896690683
1499369100061,4.730296787975931,-0.9460593575952316,-0.09155413138023505
1499369100077,6.012054627298312,-2.04470893415737,-0.5798428320745188
1499369100093,8.270389868009488,-2.7771419851987957,-0.8850232700083325
1499369100109,10.406652933546866,-2.7771419851987957,-0.8239871824216607
1499369100125,13.519493400473038,-3.2654306858930795,-1.1291676203554744
1499369100141,14.740215152208748,-2.655069810025225,-0.9460593575952316
1499369100157,14.190890363927565,-0.9460593575952316,-0.3967345693140487
1499369100173,14.129854276340893,-0.15259021896690683,-0.2746623941404778
1499369100189,9.979400320439481,-0.45777065690094787,-0.3967345693140487
1499369100205,1.9226367589837992,-1.6784924086366573,-0.03051804379333589
1499369100221,-3.0823224231326094,-3.2654306858930795,0.09155413138023505
1499369100237,-3.814755474174035,-3.3875028610666504,0.33569848172737693
1499369100253,-1.0681315327688026,-2.166781109330941,0.213626306553806
1499369100269,5.584802014190927,-0.8850232700083325,-0.3967345693140487
1499369100285,11.261158159761862,0.3967345693140487,-0.5798428320745188
1499369100301,14.740215152208748,1.0681315327688026,-0.45777065690094787
1499369100317,16.08300907911803,0.45777065690094787,-0.2746623941404778
1499369100333,14.496070801861606,-1.6784924086366573,-0.2746623941404778
1499369100349,9.55214770733187,-3.5095750362402214,0.09155413138023505
1499369100365,-0.33569848172737693,-5.2185854886702145,0.7019150072480898
1499369100381,-9.613183794918768,-6.927595941100208,1.4343480582895154
1499369100397,-14.618142977035177,-6.439307240405924,1.1291676203554744
1499369100413,-19.317921721217544,-2.532997634851654,0.7019150072480898
1499369100429,-14.80125123979542,-0.33569848172737693,0.5798428320745188
1499369100445,0.9460593575952316,-0.7019150072480898,0.7019150072480898
1499369100461,12.115663385976859,-1.983672846570471,0.213626306553806
1499369100477,14.740215152208748,-3.1433585107195086,-0.45777065690094787
1499369100493,14.557106889448278,-2.288853284504512,-0.8850232700083325
1499369100509,17.181658655680167,0.03051804379333589,-0.8850232700083325
1499369100525,22.308690012970146,1.8616006713969,-0.6408789196611906
1499369100541,23.102159151598244,2.288853284504512,-0.2746623941404778
1499369100557,18.70756084534969,1.8616006713969,0.2746623941404778
1499369100573,8.6366063935302,1.1902037079423735,0.7629510948347615
1499369100589,-4.852368963149502,-0.03051804379333589,0.8239871824216607
1499369100605,-15.716792553597315,-1.8616006713969,0.7629510948347615
1499369100621,-21.69832913710229,-3.3875028610666504,0.8239871824216607
1499369100637,-21.33211261158158,-3.570611123826893,0.7019150072480898
1499369100653,-16.388189517051842,-2.288853284504512,0.33569848172737693
1499369100669,-9.185931181811156,0.03051804379333589,0.2746623941404778
1499369100685,0.8850232700083325,2.288853284504512,-0.15259021896690683
1499369100701,10.345616845960194,3.4485389486533222,-0.3967345693140487
1499369100717,14.373998626688035,3.3264667734797513,-0.5798428320745188
1499369100733,14.98435950255589,2.288853284504512,-0.7629510948347615
1499369100749,13.519493400473038,1.1291676203554744,-0.9460593575952316
1499369100765,10.101472495613052,0.15259021896690683,-0.8850232700083325
1499369100781,5.279621576256886,-0.9460593575952316,-0.7629510948347615
1499369100797,0.8239871824216607,-2.3498893720911838,-0.5798428320745188
1499369100813,-0.8850232700083325,-3.3875028610666504,-0.7019150072480898
1499369100829,0.5798428320745188,-2.9602502479590385,-0.6408789196611906
1499369100845,2.7161058976118966,-2.04470893415737,-0.7019150072480898
1499369100861,5.2185854886702145,-1.3733119707026162,-0.7019150072480898
1499369100877,6.561379415579495,-1.3122758831159445,-0.7019150072480898
1499369100893,8.270389868009488,-1.1902037079423735,-0.6408789196611906
1499369100909,11.688410772869474,-1.0070954451819034,-0.7019150072480898
1499369100925,14.80125123979542,-0.33569848172737693,-0.6408789196611906
1499369100941,14.862287327382319,0.33569848172737693,-0.15259021896690683
1499369100957,12.115663385976859,0.5798428320745188,0.33569848172737693
1499369100973,7.354848554207592,-0.15259021896690683,0.6408789196611906
1499369100989,1.0070954451819034,-1.4953841458761872,0.7019150072480898
1499369101005,-5.462729839017356,-2.8381780727854675,0.7629510948347615
1499369101021,-10.284580758373295,-3.875791561760934,0.7019150072480898
1499369101037,-11.20012207217519,-4.119935912108076,0.5798428320745188
1499369101053,-7.049668116273779,-3.5095750362402214,0.45777065690094787
1499369101069,0.3967345693140487,-2.04470893415737,0.3967345693140487
1499369101085,10.406652933546866,-0.33569848172737693,0.33569848172737693
1499369101101,20.721751735713724,1.4343480582895154,0.15259021896690683
1499369101117,26.092927443350845,3.1433585107195086,0.15259021896690683
1499369101133,24.383916990920852,3.3875028610666504,0.33569848172737693
1499369101149,17.914091706721592,1.983672846570471,0.5188067444876197
1499369101165,9.308003356984727,0.09155413138023505,0.5188067444876197
1499369101181,0.8850232700083325,-1.6784924086366573,0.33569848172737693
1499369101197,-5.76791027695117,-2.8992141603723667,0.3967345693140487
1499369101213,-7.4158846417944915,-3.2654306858930795,0.45777065690094787
1499369101229,-2.4719615472647547,-2.227817196917613,0.45777065690094787
1499369101245,5.645838101777599,-0.15259021896690683,0.5188067444876197
1499369101261,13.824673838406852,1.4953841458761872,0.5798428320745188
1499369101277,16.754406042572555,2.04470893415737,0.8239871824216607
1499369101293,12.970168612191856,2.04470893415737,0.8850232700083325
1499369101309,6.439307240405924,1.1291676203554744,0.8850232700083325
1499369101325,-2.105745021744042,-0.15259021896690683,1.1291676203554744
1499369101341,-10.467689021133765,-1.0070954451819034,1.3122758831159445
1499369101357,-13.946746013580423,-0.9460593575952316,1.2512397955290453
1499369101373,-13.58052948805971,-0.3967345693140487,1.3733119707026162
1499369101389,-10.528725108720437,0.15259021896690683,1.5564202334630863
1499369101405,-4.669260700389032,0.45777065690094787,1.4343480582895154
1499369101421,3.0212863355459376,1.1291676203554744,1.1291676203554744
1499369101437,10.589761196307336,2.105745021744042,0.9460593575952316
1499369101453,16.510261692225413,3.0823224231326094,0.8239871824216607
1499369101469,19.439993896391115,3.3875028610666504,0.8239871824216607
1499369101485,18.158236057068734,3.3264667734797513,1.0681315327688026
1499369101501,13.092240787365427,2.4719615472647547,1.3733119707026162
1499369101517,6.8665598535133086,0.8850232700083325,1.6174563210497581
1499369101533,0.213626306553806,-0.5188067444876197,1.4953841458761872
1499369101549,-6.927595941100208,-1.3122758831159445,1.3122758831159445
1499369101565,-11.139085984588291,-2.288853284504512,1.1291676203554744
1499369101581,-10.650797283894008,-2.7161058976118966,0.9460593575952316
1499369101597,-7.11070420386045,-1.4953841458761872,0.9460593575952316
1499369101613,-0.2746623941404778,0.15259021896690683,0.8850232700083325
1499369101629,7.598992904554734,1.4953841458761872,0.7019150072480898
1499369101645,11.932555123216616,2.227817196917613,0.5798428320745188
1499369101661,14.251926451514464,2.105745021744042,0.5188067444876197
1499369101677,14.679179064621849,1.8005645838102282,0.3967345693140487
1499369101693,12.23773556115043,1.4343480582895154,0.5188067444876197
1499369101709,8.941786831464015,1.0070954451819034,0.7019150072480898
1499369101725,4.730296787975931,0.3967345693140487,0.8850232700083325
1499369101741,0.5798428320745188,-0.6408789196611906,0.9460593575952316
1499369101757,-2.227817196917613,-1.6174563210497581,1.0070954451819034
1499369101773,-3.814755474174035,-1.4953841458761872,1.0070954451819034
1499369101789,-2.532997634851654,-0.8850232700083325,0.9460593575952316
1499369101805,1.2512397955290453,-0.33569848172737693,0.8850232700083325
1499369101821,4.730296787975931,0.3967345693140487,0.9460593575952316
1499369101837,7.721065079728305,0.8850232700083325,0.8850232700083325
1499369101853,10.162508583199724,1.3122758831159445,0.6408789196611906
1499369101869,9.918364232852582,1.4953841458761872,0.6408789196611906
1499369101885,8.209353780422589,1.0070954451819034,0.5188067444876197
1499369101901,5.95101853971164,0.2746623941404778,0.45777065690094787
1499369101917,3.875791561760934,-0.33569848172737693,0.3967345693140487
1499369101933,3.1433585107195086,-0.5798428320745188,0.5188067444876197
1499369101949,3.4485389486533222,-0.03051804379333589,0.6408789196611906
1499369101965,3.936827649347606,0.6408789196611906,0.7019150072480898
1499369101981,3.997863736934505,0.5798428320745188,0.7019150072480898
1499369101997,2.8381780727854675,-0.03051804379333589,0.7019150072480898
1499369102013,2.04470893415737,-0.5188067444876197,0.5798428320745188
1499369102029,1.983672846570471,-0.2746623941404778,0.7629510948347615
1499369102045,2.288853284504512,0.2746623941404778,0.8239871824216607
1499369102061,4.119935912108076,0.3967345693140487,0.6408789196611906
1499369102077,5.645838101777599,0.33569848172737693,0.5798428320745188
1499369102093,5.889982452124741,0.6408789196611906,0.7019150072480898
1499369102109,6.805523765926637,0.8239871824216607,0.7629510948347615
1499369102125,7.537956816968062,1.0681315327688026,0.9460593575952316
1499369102141,6.378271152819025,1.3122758831159445,1.0070954451819034
1499369102157,5.279621576256886,1.4953841458761872,0.8850232700083325
1499369102173,4.730296787975931,1.4953841458761872,0.8239871824216607
1499369102189,3.1433585107195086,1.1291676203554744,0.6408789196611906
1499369102205,1.739528496223329,0.5798428320745188,0.45777065690094787
1499369102221,1.1902037079423735,0.213626306553806,0.2746623941404778
1499369102237,2.04470893415737,0.45777065690094787,0.15259021896690683
1499369102253,4.058899824521177,1.0681315327688026,-0.03051804379333589
1499369102269,5.3406576638437855,1.6784924086366573,-0.03051804379333589
1499369102285,6.378271152819025,1.739528496223329,0.03051804379333589
1499369102301,7.598992904554734,1.3122758831159445,0.03051804379333589
1499369102317,7.2938124666209205,1.0070954451819034,0.03051804379333589
1499369102333,5.828946364538069,0.7629510948347615,-0.03051804379333589
1499369102349,4.730296787975931,0.5188067444876197,-0.03051804379333589
1499369102365,3.936827649347606,0.5188067444876197,-0.03051804379333589
1499369102381,3.814755474174035,0.5798428320745188,-0.03051804379333589
1499369102397,3.692683299000464,0.7019150072480898,0.03051804379333589
1499369102413,3.570611123826893,0.8239871824216607,0.03051804379333589
1499369102429,4.486152437628789,1.0070954451819034,-0.03051804379333589
1499369102445,4.974441138323073,1.2512397955290453,-0.09155413138023505
1499369102461,4.730296787975931,1.3122758831159445,-0.15259021896690683
1499369102477,4.669260700389032,0.8850232700083325,-0.2746623941404778
1499369102493,3.936827649347606,0.6408789196611906,-0.3967345693140487
1499369102509,3.3875028610666504,0.7629510948347615,-0.3967345693140487
1499369102525,4.303044174868319,1.1291676203554744,-0.2746623941404778
1499369102541,6.317235065232353,1.3122758831159445,-0.15259021896690683
1499369102557,8.392462043183059,1.3733119707026162,-0.03051804379333589
1499369102573,10.040436408026153,1.4953841458761872,-0.03051804379333589
1499369102589,9.67421988250544,1.4953841458761872,-0.03051804379333589
1499369102605,7.2938124666209205,1.0681315327688026,0.09155413138023505
1499369102621,4.669260700389032,0.3967345693140487,0.09155413138023505
1499369102637,2.8381780727854675,-0.5798428320745188,-0.03051804379333589
1499369102653,1.8616006713969,-1.3122758831159445,-0.09155413138023505
1499369102669,2.8381780727854675,-1.6174563210497581,-0.213626306553806
1499369102685,5.76791027695117,-1.4953841458761872,-0.45777065690094787
1499369102701,9.85732814526591,-0.5798428320745188,-0.3967345693140487
1499369102717,13.45845731288614,1.3122758831159445,-0.3967345693140487
1499369102733,15.167467765316132,2.7161058976118966,-0.15259021896690683
1499369102749,14.740215152208748,2.5940337224383256,0.03051804379333589
1499369102765,10.711833371480907,1.1291676203554744,0.213626306553806
1499369102781,3.814755474174035,-0.9460593575952316,0.2746623941404778
1499369102797,-2.655069810025225,-2.7161058976118966,0.213626306553806
1499369102813,-6.012054627298312,-3.4485389486533222,0.09155413138023505
1499369102829,-5.828946364538069,-2.9602502479590385,0.09155413138023505
1499369102845,-1.8005645838102282,-1.739528496223329,0.09155413138023505
1499369102861,4.669260700389032,-0.3967345693140487,-0.03051804379333589
1499369102877,10.650797283894008,0.9460593575952316,-0.09155413138023505
1499369102893,13.885709925993751,1.6174563210497581,-0.03051804379333589
1499369102909,13.824673838406852,1.8005645838102282,0.03051804379333589
1499369102925,11.505302510109004,1.1902037079423735,0.03051804379333589
1499369102941,8.575570305943302,0.2746623941404778,0.15259021896690683
1499369102957,4.730296787975931,-0.5798428320745188,0.213626306553806
1499369102973,1.0070954451819034,-1.3733119707026162,0.33569848172737693
1499369102989,-1.2512397955290453,-1.9226367589837992,0.45777065690094787
1499369103005,-1.4953841458761872,-1.8616006713969,0.5188067444876197
1499369103021,-0.03051804379333589,-1.1902037079423735,0.45777065690094787
1499369103037,2.5940337224383256,-0.2746623941404778,0.5188067444876197
1499369103053,5.645838101777599,0.45777065690094787,0.3967345693140487
1499369103069,7.843137254901876,1.0070954451819034,0.2746623941404778
1499369103085,8.148317692835917,1.0681315327688026,0.213626306553806
1499369103101,6.805523765926637,0.7629510948347615,0.33569848172737693
1499369103117,5.401693751430457,0.09155413138023505,0.2746623941404778
1499369103132,3.7537193865873633,-0.33569848172737693,0.33569848172737693
1499369103148,2.288853284504512,-0.6408789196611906,0.3967345693140487
1499369103164,1.4343480582895154,-0.9460593575952316,0.15259021896690683
1499369103180,1.4953841458761872,-1.0070954451819034,0.33569848172737693
1499369103196,2.7771419851987957,-0.9460593575952316,0.213626306553806
1499369103212,4.42511635004189,-0.5188067444876197,0.213626306553806
1499369103228,6.195162890058782,0.15259021896690683,0.15259021896690683
1499369103244,7.660028992141633,0.45777065690094787,-0.03051804379333589
1499369103260,7.904173342488775,0.5188067444876197,0.03051804379333589
1499369103276,6.744487678339738,0.15259021896690683,0.15259021896690683
1499369103292,4.730296787975931,-0.3967345693140487,0.2746623941404778
1499369103308,2.7771419851987957,-0.7629510948347615,0.3967345693140487
1499369103324,1.739528496223329,-0.9460593575952316,0.5188067444876197
1499369103340,1.5564202334630863,-0.8850232700083325,0.7019150072480898
1499369103356,1.8005645838102282,-1.1291676203554744,0.8239871824216607
1499369103372,1.739528496223329,-1.3733119707026162,0.6408789196611906
1499369103388,2.5940337224383256,-1.0070954451819034,0.8239871824216607
1499369103404,5.889982452124741,-0.03051804379333589,0.6408789196611906
1499369103420,8.819714656290444,1.6174563210497581,0.45777065690094787
1499369103436,7.782101167315204,2.227817196917613,0.45777065690094787
1499369103452,4.547188525215461,1.1291676203554744,0.6408789196611906
1499369103468,1.3733119707026162,-0.9460593575952316,0.6408789196611906
1499369103484,-0.8239871824216607,-2.3498893720911838,0.5798428320745188
1499369103500,-1.8005645838102282,-2.3498893720911838,0.8239871824216607
1499369103516,-1.739528496223329,-1.739528496223329,0.8239871824216607
1499369103532,-0.5188067444876197,-0.213626306553806,1.0070954451819034
1499369103548,1.2512397955290453,0.213626306553806,1.0070954451819034
1499369103564,3.0212863355459376,-0.09155413138023505,1.0681315327688026
1499369103580,3.875791561760934,-0.2746623941404778,1.1291676203554744
1499369103596,4.730296787975931,0.2746623941404778,1.1291676203554744
1499369103612,4.42511635004189,0.6408789196611906,1.4953841458761872
1499369103628,2.4719615472647547,-0.5798428320745188,1.6784924086366573
1499369103644,0.7019150072480898,-2.227817196917613,1.6784924086366573
1499369103660,-0.8239871824216607,-2.7771419851987957,1.739528496223329
1499369103676,-1.1902037079423735,-2.8381780727854675,1.6784924086366573
1499369103692,0.5188067444876197,-2.4719615472647547,1.739528496223329
1499369103708,1.8005645838102282,-2.04470893415737,2.105745021744042
1499369103724,3.2043945983061803,-1.9226367589837992,2.3498893720911838
1499369103740,4.9134050507361735,-1.9226367589837992,2.532997634851654
1499369103756,4.180971999694748,-2.227817196917613,2.655069810025225
1499369103772,1.0681315327688026,-3.814755474174035,2.4719615472647547
1499369103788,-2.4719615472647547,-5.3406576638437855,3.0212863355459376
1499369103804,-6.134126802471883,-6.317235065232353,3.2043945983061803
1499369103820,-8.392462043183059,-6.561379415579495,3.5095750362402214
1499369103836,-10.040436408026153,-7.049668116273779,3.6316472114137923
1499369103852,-12.176699473563758,-8.392462043183059,3.6316472114137923
1499369103868,-14.068818188753994,-9.796292057679011,3.570611123826893
1499369103884,-16.510261692225413,-11.139085984588291,3.3264667734797513
1499369103900,-16.693369954985883,-12.176699473563758,2.8381780727854675
1499369103916,-12.298771648737329,-12.298771648737329,2.655069810025225
1499369103932,-3.0212863355459376,-11.322194247348762,2.532997634851654
1499369103948,8.941786831464015,-9.918364232852582,2.3498893720911838
1499369103964,18.82963302052326,-8.697642481116873,2.288853284504512
1499369103980,25.970855268177274,-7.660028992141633,1.8005645838102282
1499369103996,30.853742275120112,-6.073090714885211,1.8616006713969
1499369104012,31.036850537880355,-5.3406576638437855,2.105745021744042
1499369104028,27.496757457846797,-6.378271152819025,2.166781109330941
1499369104044,21.14900434882111,-7.782101167315204,2.288853284504512
1499369104060,10.955977721828049,-9.55214770733187,2.532997634851654
1499369104076,2.410925459678083,-11.322194247348762,2.4719615472647547
1499369104092,-2.532997634851654,-11.383230334935433,3.6316472114137923
1499369104108,-6.805523765926637,-14.373998626688035,0.7629510948347615
1499369104124,-5.828946364538069,-13.885709925993751,-1.0070954451819034
1499369104140,-5.096513313496644,-5.0354772259097444,0.3967345693140487
1499369104156,-0.15259021896690683,2.8381780727854675,0.09155413138023505
1499369104172,6.073090714885211,4.180971999694748,-0.45777065690094787
1499369104188,0.2746623941404778,4.119935912108076,-0.8850232700083325
1499369104204,-5.889982452124741,4.486152437628789,-0.03051804379333589
1499369104220,4.180971999694748,3.997863736934505,1.739528496223329
1499369104236,18.646524757763018,3.2654306858930795,1.8005645838102282
1499369104252,22.61387045090396,5.645838101777599,1.8005645838102282
1499369104268,24.505989166094423,3.6316472114137923,2.227817196917613
1499369104284,27.130540932326085,-2.105745021744042,3.3264667734797513
1499369104300,15.777828641183987,-7.476920729381163,2.9602502479590385
1499369104316,0.6408789196611906,-10.101472495613052,2.04470893415737
1499369104332,-9.185931181811156,-9.613183794918768,1.8616006713969
1499369104348,-3.814755474174035,-6.622415503166167,1.739528496223329
1499369104364,7.598992904554734,-2.7771419851987957,2.04470893415737
1499369104380,11.139085984588291,-0.45777065690094787,2.532997634851654
1499369104396,10.406652933546866,-1.3122758831159445,2.3498893720911838
1499369104412,4.9134050507361735,-2.4719615472647547,2.410925459678083
1499369104428,1.6784924086366573,-1.8005645838102282,2.288853284504512
1499369104444,2.655069810025225,-0.09155413138023505,2.166781109330941
1499369104460,4.547188525215461,0.9460593575952316,1.983672846570471
1499369104476,4.119935912108076,0.5798428320745188,2.105745021744042
1499369104492,0.03051804379333589,-0.5188067444876197,1.8616006713969
1499369104508,-4.119935912108076,-1.4343480582895154,1.6174563210497581
1499369104524,-5.0354772259097444,-1.9226367589837992,1.2512397955290453
1499369104540,-2.532997634851654,-1.3733119707026162,0.8239871824216607
1499369104556,0.8239871824216607,0.33569848172737693,0.8239871824216607
1499369104572,3.936827649347606,1.9226367589837992,0.7019150072480898
1499369104588,5.584802014190927,2.532997634851654,0.33569848172737693
1499369104604,6.012054627298312,2.532997634851654,0.15259021896690683
1499369104620,5.2185854886702145,1.983672846570471,-0.09155413138023505
1499369104636,4.669260700389032,1.2512397955290453,-0.09155413138023505
1499369104652,5.157549401083315,0.9460593575952316,-0.15259021896690683
1499369104668,4.60822461280236,1.0681315327688026,-0.3967345693140487
1499369104684,2.532997634851654,2.166781109330941,-0.8239871824216607
1499369104700,1.1291676203554744,2.105745021744042,-0.45777065690094787
1499369104716,2.3498893720911838,1.0070954451819034,0.09155413138023505
1499369104732,3.4485389486533222,0.8239871824216607,0.09155413138023505
1499369104748,3.6316472114137923,1.5564202334630863,-0.15259021896690683
1499369104764,2.166781109330941,1.6174563210497581,-0.33569848172737693
1499369104780,1.0681315327688026,1.0681315327688026,-0.15259021896690683
1499369104796,1.2512397955290453,0.213626306553806,0.2746623941404778
1499369104812,1.6174563210497581,0.03051804379333589,0.5188067444876197
1499369104828,2.9602502479590385,0.5188067444876197,0.45777065690094787
1499369104844,4.486152437628789,0.8850232700083325,0.3967345693140487
1499369104860,5.645838101777599,1.2512397955290453,0.45777065690094787
1499369104876,7.2938124666209205,1.6784924086366573,0.5188067444876197
1499369104892,8.880750743877343,2.105745021744042,0.7019150072480898
1499369104908,9.73525597009234,2.288853284504512,0.7629510948347615
1499369104924,8.819714656290444,1.8005645838102282,0.6408789196611906
1499369104940,6.927595941100208,0.7629510948347615,0.5798428320745188
1499369104956,5.645838101777599,0.6408789196611906,0.3967345693140487
1499369104972,4.547188525215461,0.8239871824216607,0.33569848172737693
1499369104988,3.0823224231326094,0.2746623941404778,0.5188067444876197
1499369105004,1.3122758831159445,-0.33569848172737693,0.5188067444876197
1499369105020,1.5564202334630863,-0.15259021896690683,0.45777065690094787
1499369105036,2.7771419851987957,0.9460593575952316,0.45777065690094787
1499369105052,3.6316472114137923,1.739528496223329,0.33569848172737693
1499369105068,4.547188525215461,1.6784924086366573,0.09155413138023505
1499369105084,4.058899824521177,1.3733119707026162,-0.03051804379333589
1499369105100,3.3264667734797513,1.1902037079423735,-0.03051804379333589
1499369105116,3.0212863355459376,0.9460593575952316,0.03051804379333589
1499369105132,3.1433585107195086,0.7629510948347615,-0.03051804379333589
1499369105148,3.814755474174035,0.8239871824216607,-0.213626306553806
1499369105164,4.852368963149502,1.1902037079423735,-0.15259021896690683
1499369105180,6.378271152819025,1.6784924086366573,-0.09155413138023505
1499369105196,8.33142595559616,2.166781109330941,-0.03051804379333589
1499369105212,10.528725108720437,1.8005645838102282,-0.09155413138023505
1499369105228,13.519493400473038,-0.7019150072480898,-0.45777065690094787
1499369105244,15.411612115663274,-2.04470893415737,-0.03051804379333589
1499369105260,12.4208438239109,-1.739528496223329,-0.45777065690094787
1499369105276,6.805523765926637,-1.2512397955290453,-0.5798428320745188
1499369105292,0.5798428320745188,-1.9226367589837992,-0.33569848172737693
1499369105308,-4.058899824521177,-2.5940337224383256,0.09155413138023505
1499369105324,-5.584802014190927,-2.227817196917613,0.2746623941404778
1499369105340,-3.997863736934505,-0.2746623941404778,0.3967345693140487
1499369105356,-0.6408789196611906,2.3498893720911838,0.5188067444876197
1499369105372,2.288853284504512,4.60822461280236,0.45777065690094787
1499369105388,3.1433585107195086,5.523765926604028,0.5798428320745188
1499369105404,1.8616006713969,5.0354772259097444,0.8850232700083325
1499369105420,-0.03051804379333589,3.875791561760934,0.7629510948347615
1499369105436,-0.9460593575952316,2.9602502479590385,0.7629510948347615
1499369105452,-0.8239871824216607,2.7771419851987957,0.7019150072480898
1499369105468,0.6408789196611906,3.2043945983061803,0.7019150072480898
1499369105484,1.9226367589837992,3.6316472114137923,0.7019150072480898
1499369105500,2.7771419851987957,3.570611123826893,0.7019150072480898
1499369105516,2.8992141603723667,3.0823224231326094,0.7629510948347615
1499369105532,2.166781109330941,2.288853284504512,0.5798428320745188
1499369105548,1.9226367589837992,1.5564202334630863,0.5188067444876197
1499369105564,1.739528496223329,1.0681315327688026,0.5798428320745188
1499369105580,2.4719615472647547,1.1902037079423735,0.6408789196611906
1499369105596,3.5095750362402214,1.4343480582895154,0.7629510948347615
1499369105612,4.303044174868319,1.739528496223329,0.7629510948347615
1499369105628,4.60822461280236,1.6174563210497581,0.7629510948347615
1499369105644,4.119935912108076,1.3122758831159445,0.7629510948347615
1499369105660,3.692683299000464,0.9460593575952316,0.8239871824216607
1499369105676,3.1433585107195086,0.6408789196611906,0.7629510948347615
1499369105692,2.7771419851987957,0.33569848172737693,0.8239871824216607
1499369105708,3.2043945983061803,0.213626306553806,0.8850232700083325
1499369105724,3.6316472114137923,0.45777065690094787,0.8850232700083325
1499369105740,4.669260700389032,0.7629510948347615,0.8239871824216607
1499369105756,4.791332875562603,0.7019150072480898,0.8239871824216607
1499369105772,4.669260700389032,0.3967345693140487,0.8239871824216607
1499369105788,4.730296787975931,0.3967345693140487,0.9460593575952316
1499369105804,5.0354772259097444,0.8850232700083325,1.0681315327688026
1499369105820,4.9134050507361735,1.1902037079423735,1.1291676203554744
1499369105836,4.547188525215461,0.9460593575952316,1.1291676203554744
1499369105852,3.875791561760934,0.2746623941404778,1.2512397955290453
1499369105868,3.3264667734797513,0.33569848172737693,1.0681315327688026
1499369105884,2.532997634851654,0.3967345693140487,1.1291676203554744
1499369105900,2.5940337224383256,0.33569848172737693,0.8850232700083325
1499369105916,2.288853284504512,0.33569848172737693,1.0070954451819034
1499369105932,2.4719615472647547,0.5188067444876197,0.8850232700083325
1499369105948,2.4719615472647547,0.5798428320745188,0.9460593575952316
1499369105964,2.5940337224383256,0.5798428320745188,0.9460593575952316
1499369105980,2.9602502479590385,0.7019150072480898,0.8239871824216607
1499369105996,2.7161058976118966,0.8239871824216607,0.8239871824216607
1499369106012,2.8381780727854675,0.8239871824216607,0.9460593575952316
1499369106028,2.655069810025225,0.7629510948347615,0.9460593575952316
1499369106044,2.227817196917613,0.6408789196611906,1.0070954451819034
1499369106060,2.04470893415737,0.3967345693140487,1.0070954451819034
1499369106076,2.04470893415737,0.2746623941404778,1.0070954451819034
1499369106092,2.166781109330941,0.2746623941404778,0.9460593575952316
1499369106108,2.7771419851987957,0.3967345693140487,0.8850232700083325
1499369106124,3.3264667734797513,0.45777065690094787,0.8239871824216607
1499369106140,3.814755474174035,0.5188067444876197,0.7629510948347615
1499369106156,3.875791561760934,0.5188067444876197,0.7019150072480898
1499369106172,3.692683299000464,0.45777065690094787,0.7629510948347615
1499369106188,3.4485389486533222,0.33569848172737693,0.7629510948347615
1499369106204,3.0823224231326094,0.09155413138023505,0.7019150072480898
1499369106220,2.7161058976118966,-0.03051804379333589,0.6408789196611906
1499369106236,2.3498893720911838,-0.2746623941404778,0.5188067444876197
1499369106252,2.532997634851654,-0.33569848172737693,0.5188067444876197
1499369106268,2.9602502479590385,-0.15259021896690683,0.5188067444876197
1499369106284,3.4485389486533222,0.09155413138023505,0.5188067444876197
1499369106300,3.814755474174035,0.2746623941404778,0.2746623941404778
1499369106316,4.119935912108076,0.33569848172737693,0.45777065690094787
1499369106332,4.119935912108076,0.15259021896690683,0.2746623941404778
1499369106348,3.3875028610666504,-0.03051804379333589,0.213626306553806
1499369106364,3.5095750362402214,-0.09155413138023505,0.33569848172737693
1499369106380,2.8992141603723667,-0.45777065690094787,0.3967345693140487
1499369106396,2.8992141603723667,-0.3967345693140487,0.45777065690094787
1499369106412,3.6316472114137923,-0.09155413138023505,0.7019150072480898
1499369106428,4.303044174868319,0.45777065690094787,0.7629510948347615
1499369106444,4.669260700389032,0.7019150072480898,0.7019150072480898
1499369106460,3.997863736934505,0.45777065690094787,0.7019150072480898
1499369106476,3.1433585107195086,-0.03051804379333589,0.7629510948347615
1499369106492,2.166781109330941,-0.5188067444876197,0.7019150072480898
1499369106508,1.9226367589837992,-0.7629510948347615,0.6408789196611906
1499369106524,2.410925459678083,-0.5798428320745188,0.6408789196611906
1499369106540,3.3264667734797513,-0.09155413138023505,0.5798428320745188
1499369106556,4.364080262455218,0.3967345693140487,0.5188067444876197
1499369106572,4.547188525215461,0.5188067444876197,0.3967345693140487
1499369106588,4.42511635004189,0.33569848172737693,0.45777065690094787
1499369106604,3.570611123826893,-0.09155413138023505,0.5188067444876197
1499369106620,2.7161058976118966,-0.45777065690094787,0.5798428320745188
1499369106636,2.532997634851654,-0.5798428320745188,0.5798428320745188
1499369106652,2.8381780727854675,-0.45777065690094787,0.5798428320745188
1499369106668,3.2043945983061803,-0.2746623941404778,0.5798428320745188
1499369106684,3.570611123826893,-0.15259021896690683,0.6408789196611906
1499369106700,3.7537193865873633,-0.2746623941404778,0.5798428320745188
1499369106716,3.875791561760934,-0.213626306553806,0.5798428320745188
1499369106732,3.814755474174035,-0.213626306553806,0.5798428320745188
1499369106748,3.6316472114137923,-0.33569848172737693,0.5798428320745188
1499369106764,3.3264667734797513,-0.45777065690094787,0.5188067444876197
1499369106780,3.3264667734797513,-0.45777065690094787,0.5188067444876197
1499369106796,3.3875028610666504,-0.33569848172737693,0.5798428320745188
1499369106812,3.4485389486533222,-0.213626306553806,0.5798428320745188
1499369106828,3.7537193865873633,-0.09155413138023505,0.6408789196611906
1499369106844,3.875791561760934,-0.03051804379333589,0.5798428320745188
1499369106860,3.692683299000464,-0.03051804379333589,0.45777065690094787
1499369106876,3.570611123826893,0.09155413138023505,0.2746623941404778
1499369106892,4.242008087281647,0.2746623941404778,0.5798428320745188
1499369106908,3.814755474174035,0.03051804379333589,0.5798428320745188
1499369106924,3.2043945983061803,-0.2746623941404778,0.5188067444876197
1499369106940,2.5940337224383256,-0.7019150072480898,0.5188067444876197
1499369106956,2.105745021744042,-0.8850232700083325,0.5798428320745188
1499369106972,2.3498893720911838,-0.7629510948347615,0.5798428320745188
1499369106988,3.1433585107195086,-0.2746623941404778,0.45777065690094787
1499369107004,3.875791561760934,0.09155413138023505,0.3967345693140487
1499369107020,4.242008087281647,0.213626306553806,0.33569848172737693
1499369107036,4.60822461280236,0.45777065690094787,0.5188067444876197
1499369107052,4.791332875562603,0.5188067444876197,0.6408789196611906
1499369107068,4.180971999694748,0.2746623941404778,0.8239871824216607
1499369107084,3.3875028610666504,-0.09155413138023505,0.8850232700083325
1499369107100,2.288853284504512,-0.45777065690094787,0.8239871824216607
1499369107116,2.166781109330941,-0.6408789196611906,0.7629510948347615
1499369107132,2.7161058976118966,-0.3967345693140487,0.6408789196611906
1499369107148,3.570611123826893,-0.03051804379333589,0.5188067444876197
1499369107164,3.997863736934505,0.2746623941404778,0.5188067444876197
1499369107180,4.180971999694748,0.2746623941404778,0.5188067444876197
1499369107196,3.997863736934505,0.03051804379333589,0.45777065690094787
1499369107212,3.4485389486533222,-0.213626306553806,0.3967345693140487
1499369107228,2.7161058976118966,-0.5188067444876197,0.33569848172737693
1499369107244,2.288853284504512,-0.6408789196611906,0.33569848172737693
1499369107260,2.3498893720911838,-0.7629510948347615,0.3967345693140487
1499369107276,2.7161058976118966,-0.5188067444876197,0.45777065690094787
1499369107292,3.3264667734797513,-0.213626306553806,0.5188067444876197
1499369107308,4.119935912108076,0.213626306553806,0.5188067444876197
1499369107324,4.547188525215461,0.3967345693140487,0.5188067444876197
1499369107340,4.180971999694748,0.2746623941404778,0.5798428320745188
1499369107356,3.2043945983061803,-0.213626306553806,0.5798428320745188
1499369107372,2.4719615472647547,-0.6408789196611906,0.5188067444876197
1499369107388,1.983672846570471,-0.8850232700083325,0.5798428320745188
1499369107404,1.983672846570471,-0.7629510948347615,0.213626306553806
1499369107420,3.0212863355459376,-0.09155413138023505,0.5798428320745188
1499369107436,4.730296787975931,0.6408789196611906,0.5798428320745188
1499369107452,4.669260700389032,0.7019150072480898,0.6408789196611906
1499369107468,4.364080262455218,0.33569848172737693,0.6408789196611906
1499369107484,2.9602502479590385,-0.33569848172737693,0.6408789196611906
1499369107500,2.227817196917613,-0.7019150072480898,0.5798428320745188
1499369107516,1.8616006713969,-0.8850232700083325,0.6408789196611906
1499369107532,2.288853284504512,-0.6408789196611906,0.5798428320745188
1499369107548,2.9602502479590385,-0.2746623941404778,0.5798428320745188
1499369107564,3.570611123826893,0.15259021896690683,0.5798428320745188
1499369107580,3.814755474174035,0.15259021896690683,0.5798428320745188
1499369107596,3.692683299000464,0.03051804379333589,0.6408789196611906
1499369107612,3.3875028610666504,-0.15259021896690683,0.5188067444876197
1499369107628,3.1433585107195086,-0.33569848172737693,0.5798428320745188
1499369107644,2.7161058976118966,-0.6408789196611906,0.45777065690094787
1499369107660,2.410925459678083,-0.5188067444876197,0.5798428320745188
1499369107676,3.692683299000464,0.09155413138023505,0.6408789196611906
1499369107692,4.486152437628789,0.5798428320745188,0.6408789196611906
1499369107708,4.547188525215461,0.8850232700083325,0.8239871824216607
1499369107724,4.119935912108076,0.5798428320745188,0.9460593575952316
1499369107740,2.8381780727854675,-0.09155413138023505,0.8850232700083325
1499369107756,2.288853284504512,-0.5798428320745188,0.7629510948347615
1499369107772,2.04470893415737,-0.6408789196611906,0.5798428320745188
1499369107788,2.4719615472647547,-0.5188067444876197,0.45777065690094787
1499369107804,2.8381780727854675,-0.213626306553806,0.5188067444876197
1499369107820,3.1433585107195086,-0.03051804379333589,0.6408789196611906
1499369107836,3.3875028610666504,-0.03051804379333589,0.5188067444876197
1499369107852,3.3264667734797513,-0.03051804379333589,0.45777065690094787
1499369107868,3.0823224231326094,-0.213626306553806,0.45777065690094787
1499369107884,2.7771419851987957,-0.2746623941404778,0.45777065690094787
1499369107900,2.532997634851654,-0.33569848172737693,0.5798428320745188
1499369107916,2.4719615472647547,-0.3967345693140487,0.6408789196611906
1499369107932,2.5940337224383256,-0.3967345693140487,0.6408789196611906
1499369107948,2.9602502479590385,-0.2746623941404778,0.6408789196611906
1499369107964,3.3875028610666504,0.03051804379333589,0.6408789196611906
1499369107980,3.936827649347606,0.2746623941404778,0.5798428320745188
1499369107996,4.119935912108076,0.2746623941404778,0.45777065690094787
1499369108012,3.6316472114137923,0.03051804379333589,0.45777065690094787
1499369108028,3.2043945983061803,-0.213626306553806,0.5188067444876197
1499369108044,2.7771419851987957,-0.45777065690094787,0.45777065690094787
1499369108060,2.5940337224383256,-0.45777065690094787,0.5798428320745188
1499369108076,2.655069810025225,-0.3967345693140487,0.5798428320745188
1499369108092,3.0823224231326094,-0.09155413138023505,0.5798428320745188
1499369108108,3.5095750362402214,0.15259021896690683,0.45777065690094787
1499369108124,3.3875028610666504,0.15259021896690683,0.33569848172737693
1499369108140,3.5095750362402214,0.09155413138023505,0.5798428320745188
1499369108156,3.1433585107195086,-0.213626306553806,0.5798428320745188
1499369108172,2.5940337224383256,-0.3967345693140487,0.5798428320745188
1499369108188,2.3498893720911838,-0.5798428320745188,0.5188067444876197
1499369108204,2.7771419851987957,-0.2746623941404778,0.6408789196611906
1499369108220,3.6316472114137923,-0.03051804379333589,0.7019150072480898
1499369108236,3.570611123826893,-0.09155413138023505,0.5188067444876197
1499369108252,3.3264667734797513,-0.213626306553806,0.6408789196611906
1499369108268,3.3875028610666504,-0.2746623941404778,0.5798428320745188
1499369108284,3.570611123826893,-0.03051804379333589,0.7019150072480898
1499369108300,3.997863736934505,0.2746623941404778,0.7629510948347615
1499369108316,3.814755474174035,0.33569848172737693,0.8239871824216607
1499369108332,3.2654306858930795,0.09155413138023505,0.8239871824216607
1499369108348,2.4719615472647547,-0.33569848172737693,0.8239871824216607
1499369108364,1.983672846570471,-0.5798428320745188,0.7629510948347615
1499369108380,2.105745021744042,-0.6408789196611906,0.6408789196611906
1499369108396,2.7161058976118966,-0.33569848172737693,0.5798428320745188
1499369108412,3.7537193865873633,0.15259021896690683,0.5188067444876197
1499369108428,4.547188525215461,0.5798428320745188,0.45777065690094787
1499369108444,4.60822461280236,0.5798428320745188,0.33569848172737693
1499369108460,4.180971999694748,0.3967345693140487,0.45777065690094787
1499369108476,2.9602502479590385,-0.2746623941404778,0.45777065690094787
1499369108492,1.8005645838102282,-0.8850232700083325,0.5188067444876197
1499369108508,1.4953841458761872,-1.1902037079423735,0.45777065690094787
1499369108524,1.8616006713969,-0.9460593575952316,0.5188067444876197
1499369108540,2.7771419851987957,-0.2746623941404778,0.5798428320745188
1499369108556,3.5095750362402214,0.213626306553806,0.5798428320745188
1499369108572,3.875791561760934,0.3967345693140487,0.5188067444876197
1499369108588,3.875791561760934,0.3967345693140487,0.45777065690094787
1499369108604,3.7537193865873633,0.15259021896690683,0.5188067444876197
1499369108620,3.3264667734797513,-0.09155413138023505,0.5798428320745188
1499369108636,2.9602502479590385,-0.213626306553806,0.5188067444876197
1499369108652,2.8381780727854675,-0.2746623941404778,0.5798428320745188
1499369108668,2.655069810025225,-0.45777065690094787,0.5798428320745188
1499369108684,2.5940337224383256,-0.5188067444876197,0.5798428320745188
1499369108700,2.7161058976118966,-0.3967345693140487,0.5798428320745188
1499369108716,3.0823224231326094,-0.09155413138023505,0.5798428320745188
1499369108732,3.3875028610666504,0.15259021896690683,0.5798428320745188
1499369108748,3.6316472114137923,0.33569848172737693,0.5798428320745188
1499369108764,3.3264667734797513,0.09155413138023505,0.5798428320745188
1499369108780,2.8381780727854675,-0.2746623941404778,0.6408789196611906
1499369108796,2.5940337224383256,-0.5188067444876197,0.5188067444876197
1499369108812,2.7771419851987957,-0.3967345693140487,0.5188067444876197
1499369108828,3.0212863355459376,-0.2746623941404778,0.45777065690094787
1499369108844,3.0212863355459376,-0.213626306553806,0.33569848172737693
1499369108860,3.2654306858930795,0.09155413138023505,0.5188067444876197
1499369108876,3.936827649347606,0.3967345693140487,0.6408789196611906
1499369108892,3.5095750362402214,0.213626306553806,0.7019150072480898
1499369108908,3.2043945983061803,0.03051804379333589,0.7629510948347615
1499369108924,2.4719615472647547,-0.45777065690094787,0.8239871824216607
1499369108940,2.288853284504512,-0.5188067444876197,0.7629510948347615
1499369108956,2.5940337224383256,-0.2746623941404778,0.6408789196611906
1499369108972,3.2654306858930795,0.09155413138023505,0.45777065690094787
1499369108988,3.814755474174035,0.33569848172737693,0.45777065690094787
1499369109004,3.936827649347606,0.33569848172737693,0.3967345693140487
1499369109020,3.814755474174035,0.2746623941404778,0.45777065690094787
1499369109036,3.4485389486533222,-0.03051804379333589,0.45777065690094787
1499369109052,2.8992141603723667,-0.2746623941404778,0.45777065690094787
1499369109068,2.3498893720911838,-0.5188067444876197,0.5188067444876197
1499369109084,2.227817196917613,-0.5798428320745188,0.5798428320745188
1499369109100,2.3498893720911838,-0.5188067444876197,0.6408789196611906
1499369109116,2.5940337224383256,-0.2746623941404778,0.5798428320745188
1499369109132,2.9602502479590385,-0.09155413138023505,0.45777065690094787
1499369109148,3.1433585107195086,0.09155413138023505,0.3967345693140487
1499369109164,3.2654306858930795,0.213626306553806,0.3967345693140487
1499369109180,3.1433585107195086,0.09155413138023505,0.3967345693140487
1499369109196,3.3264667734797513,0.03051804379333589,0.5798428320745188
1499369109212,3.0823224231326094,-0.15259021896690683,0.5188067444876197
1499369109228,3.2043945983061803,-0.15259021896690683,0.45777065690094787
1499369109244,3.2654306858930795,0.09155413138023505,0.5188067444876197
1499369109260,3.6316472114137923,0.33569848172737693,0.5188067444876197
1499369109276,3.3264667734797513,0.213626306553806,0.5798428320745188
1499369109292,2.7771419851987957,-0.03051804379333589,0.5798428320745188
1499369109308,2.105745021744042,-0.45777065690094787,0.5798428320745188
1499369109324,1.9226367589837992,-0.5798428320745188,0.5798428320745188
1499369109340,2.227817196917613,-0.3967345693140487,0.6408789196611906
1499369109356,2.532997634851654,-0.213626306553806,0.5798428320745188
1499369109372,2.8992141603723667,0.03051804379333589,0.6408789196611906
1499369109388,3.2654306858930795,0.2746623941404778,0.6408789196611906
1499369109404,3.5095750362402214,0.33569848172737693,0.5188067444876197
1499369109420,3.2654306858930795,-0.03051804379333589,0.45777065690094787
1499369109436,2.532997634851654,-0.45777065690094787,0.5188067444876197
1499369109452,2.288853284504512,-0.5798428320745188,0.5798428320745188
1499369109468,2.8381780727854675,-0.15259021896690683,0.6408789196611906
1499369109484,3.7537193865873633,0.3967345693140487,0.8239871824216607
1499369109500,3.936827649347606,0.5798428320745188,0.8239871824216607
1499369109516,3.814755474174035,0.2746623941404778,0.8239871824216607
1499369109532,3.2043945983061803,-0.09155413138023505,0.7629510948347615
1499369109548,2.7771419851987957,-0.2746623941404778,0.6408789196611906
1499369109564,2.8992141603723667,-0.2746623941404778,0.45777065690094787
1499369109580,3.1433585107195086,-0.09155413138023505,0.45777065690094787
1499369109596,3.6316472114137923,0.15259021896690683,0.33569848172737693
1499369109612,3.997863736934505,0.33569848172737693,0.2746623941404778
1499369109628,4.058899824521177,0.3967345693140487,0.213626306553806
1499369109644,3.570611123826893,0.09155413138023505,0.09155413138023505
1499369109660,3.3875028610666504,-0.09155413138023505,0.09155413138023505
1499369109676,3.3875028610666504,-0.03051804379333589,0.15259021896690683
1499369109692,4.058899824521177,0.2746623941404778,0.15259021896690683
1499369109708,4.852368963149502,0.7629510948347615,0.15259021896690683
1499369109724,5.279621576256886,1.0681315327688026,0.09155413138023505
1499369109740,5.0354772259097444,1.0070954451819034,0.09155413138023505
1499369109756,4.364080262455218,0.7629510948347615,0.09155413138023505
1499369109772,3.814755474174035,0.3967345693140487,0.09155413138023505
1499369109788,3.3875028610666504,0.213626306553806,0.09155413138023505
1499369109804,2.9602502479590385,0.03051804379333589,0.09155413138023505
1499369109820,3.0823224231326094,0.213626306553806,0.2746623941404778
1499369109836,3.7537193865873633,0.45777065690094787,0.33569848172737693
1499369109852,4.42511635004189,0.7629510948347615,0.33569848172737693
1499369109868,4.364080262455218,0.7019150072480898,0.33569848172737693
1499369109884,3.570611123826893,0.3967345693140487,0.33569848172737693
1499369109900,2.655069810025225,-0.09155413138023505,0.33569848172737693
1499369109916,2.04470893415737,-0.5798428320745188,0.3967345693140487
1499369109932,1.6174563210497581,-0.7019150072480898,0.5188067444876197
1499369109948,1.8616006713969,-0.5798428320745188,0.6408789196611906
1499369109964,2.532997634851654,-0.15259021896690683,0.7019150072480898
1499369109980,3.2654306858930795,0.33569848172737693,0.7019150072480898
1499369109996,3.7537193865873633,0.5188067444876197,0.5798428320745188
1499369110011,3.3264667734797513,0.213626306553806,0.5798428320745188
1499369110027,2.227817196917613,-0.3967345693140487,0.6408789196611906
1499369110043,1.4343480582895154,-0.8850232700083325,0.7629510948347615
1499369110059,1.4953841458761872,-0.7629510948347615,0.8239871824216607
1499369110075,2.04470893415737,-0.3967345693140487,0.9460593575952316
1499369110091,3.2043945983061803,0.15259021896690683,1.1902037079423735
1499369110107,3.7537193865873633,0.5798428320745188,1.1291676203554744
1499369110123,3.7537193865873633,0.5798428320745188,1.1902037079423735
1499369110139,2.9602502479590385,0.09155413138023505,1.1902037079423735
1499369110155,1.8005645838102282,-0.5798428320745188,1.1902037079423735
1499369110171,0.7019150072480898,-1.3122758831159445,1.1902037079423735
1499369110187,0.6408789196611906,-1.4343480582895154,1.1291676203554744
1499369110203,1.4343480582895154,-0.8850232700083325,1.0070954451819034
1499369110219,3.0212863355459376,-0.09155413138023505,0.8850232700083325
1499369110235,4.547188525215461,0.6408789196611906,0.7629510948347615
1499369110251,5.0354772259097444,0.8850232700083325,0.6408789196611906
1499369110267,4.303044174868319,0.45777065690094787,0.5188067444876197
1499369110283,2.9602502479590385,-0.2746623941404778,0.5798428320745188
1499369110299,1.8005645838102282,-1.0070954451819034,0.5798428320745188
1499369110315,1.3122758831159445,-1.2512397955290453,0.6408789196611906
1499369110331,1.4953841458761872,-1.0070954451819034,0.6408789196611906
1499369110347,2.288853284504512,-0.5188067444876197,0.6408789196611906
1499369110363,3.0212863355459376,-0.09155413138023505,0.5798428320745188
1499369110379,3.3875028610666504,0.03051804379333589,0.5798428320745188
1499369110395,3.2654306858930795,-0.213626306553806,0.5188067444876197
1499369110411,3.1433585107195086,-0.2746623941404778,0.45777065690094787
1499369110427,3.2043945983061803,-0.2746623941404778,0.3967345693140487
1499369110443,3.5095750362402214,-0.09155413138023505,0.45777065690094787
1499369110459,3.875791561760934,0.213626306553806,0.5188067444876197
1499369110475,4.242008087281647,0.3967345693140487,0.3967345693140487
1499369110491,4.42511635004189,0.5798428320745188,0.45777065690094787
1499369110507,3.997863736934505,0.3967345693140487,0.45777065690094787
1499369110523,3.2654306858930795,-0.03051804379333589,0.5188067444876197
1499369110539,2.3498893720911838,-0.5188067444876197,0.5798428320745188
1499369110555,1.739528496223329,-0.8850232700083325,0.5798428320745188
1499369110571,1.6174563210497581,-0.8850232700083325,0.5798428320745188
1499369110587,2.04470893415737,-0.6408789196611906,0.3967345693140487
1499369110603,2.5940337224383256,-0.33569848172737693,0.3967345693140487
1499369110619,3.2654306858930795,-0.03051804379333589,0.45777065690094787
1499369110635,3.814755474174035,0.2746623941404778,0.5798428320745188
1499369110651,4.303044174868319,0.6408789196611906,0.6408789196611906
1499369110667,4.42511635004189,0.7019150072480898,0.6408789196611906
1499369110683,3.936827649347606,0.33569848172737693,0.5798428320745188
1499369110699,3.2654306858930795,-0.09155413138023505,0.5798428320745188
1499369110715,2.655069810025225,-0.33569848172737693,0.5798428320745188
1499369110731,2.5940337224383256,-0.33569848172737693,0.6408789196611906
1499369110747,2.5940337224383256,-0.213626306553806,0.6408789196611906
1499369110763,2.4719615472647547,-0.33569848172737693,0.5798428320745188
1499369110779,2.288853284504512,-0.3967345693140487,0.5798428320745188
1499369110795,2.532997634851654,-0.45777065690094787,0.5798428320745188
1499369110811,2.8992141603723667,-0.2746623941404778,0.5188067444876197
1499369110827,3.2654306858930795,-0.15259021896690683,0.45777065690094787
1499369110843,3.5095750362402214,0.09155413138023505,0.45777065690094787
1499369110859,3.5095750362402214,0.2746623941404778,0.5188067444876197
1499369110875,3.570611123826893,0.3967345693140487,0.5798428320745188
1499369110891,3.2654306858930795,0.15259021896690683,0.5798428320745188
1499369110907,2.7161058976118966,-0.213626306553806,0.7019150072480898
1499369110923,2.288853284504512,-0.6408789196611906,0.6408789196611906
1499369110939,2.105745021744042,-0.7629510948347615,0.5798428320745188
1499369110955,2.410925459678083,-0.7019150072480898,0.5798428320745188
1499369110971,2.9602502479590385,-0.33569848172737693,0.5798428320745188
1499369110987,3.4485389486533222,0.09155413138023505,0.5188067444876197
1499369111003,3.875791561760934,0.45777065690094787,0.5188067444876197
1499369111019,3.814755474174035,0.45777065690094787,0.5188067444876197
1499369111035,3.2043945983061803,0.03051804379333589,0.5188067444876197
1499369111051,2.4719615472647547,-0.2746623941404778,0.6408789196611906
1499369111067,2.227817196917613,-0.45777065690094787,0.7629510948347615
1499369111083,2.288853284504512,-0.33569848172737693,0.7019150072480898
1499369111099,2.227817196917613,-0.213626306553806,0.8850232700083325
1499369111115,1.983672846570471,-0.213626306553806,0.8239871824216607
1499369111131,1.983672846570471,-0.33569848172737693,0.8850232700083325
1499369111147,2.105745021744042,-0.3967345693140487,0.8239871824216607
1499369111163,2.288853284504512,-0.45777065690094787,0.7629510948347615
1499369111179,2.5940337224383256,-0.3967345693140487,0.6408789196611906
1499369111195,2.8992141603723667,-0.213626306553806,0.7019150072480898
1499369111211,3.2654306858930795,0.09155413138023505,0.8239871824216607
1499369111227,3.7537193865873633,0.33569848172737693,0.8239871824216607
1499369111243,3.936827649347606,0.3967345693140487,0.8239871824216607
1499369111259,3.3875028610666504,-0.03051804379333589,0.6408789196611906
1499369111275,2.655069810025225,-0.5798428320745188,0.7019150072480898
1499369111291,2.227817196917613,-0.8850232700083325,0.5798428320745188
1499369111307,2.3498893720911838,-0.7019150072480898,0.45777065690094787
1499369111323,3.2654306858930795,-0.213626306553806,0.45777065690094787
1499369111339,4.119935912108076,0.213626306553806,0.33569848172737693
1499369111355,4.791332875562603,0.7019150072480898,0.33569848172737693
1499369111371,4.9134050507361735,0.8239871824216607,0.2746623941404778
1499369111387,4.42511635004189,0.45777065690094787,0.2746623941404778
1499369111403,3.3264667734797513,-0.2746623941404778,0.33569848172737693
1499369111419,2.288853284504512,-0.7019150072480898,0.45777065690094787
1499369111435,1.9226367589837992,-0.5798428320745188,0.5798428320745188
1499369111451,2.532997634851654,-0.09155413138023505,0.6408789196611906
1499369111467,2.8992141603723667,0.15259021896690683,0.7019150072480898
1499369111483,2.8381780727854675,0.09155413138023505,0.7019150072480898
1499369111499,2.3498893720911838,-0.3967345693140487,0.7629510948347615
1499369111515,2.227817196917613,-0.7629510948347615,0.7019150072480898
1499369111531,2.4719615472647547,-0.7629510948347615,0.6408789196611906
1499369111547,2.8381780727854675,-0.3967345693140487,0.6408789196611906
1499369111563,3.3875028610666504,0.09155413138023505,0.5798428320745188
1499369111579,3.997863736934505,0.6408789196611906,0.5798428320745188
1499369111595,3.997863736934505,0.6408789196611906,0.6408789196611906
1499369111611,3.4485389486533222,0.213626306553806,0.5798428320745188
1499369111627,2.7161058976118966,-0.33569848172737693,0.6408789196611906
1499369111643,2.3498893720911838,-0.6408789196611906,0.6408789196611906
1499369111659,2.288853284504512,-0.5798428320745188,0.6408789196611906
1499369111675,2.4719615472647547,-0.2746623941404778,0.6408789196611906
1499369111691,2.532997634851654,-0.15259021896690683,0.7019150072480898
1499369111707,2.8381780727854675,-0.09155413138023505,0.7019150072480898
1499369111723,3.2043945983061803,0.15259021896690683,0.6408789196611906
1499369111739,3.570611123826893,0.213626306553806,0.45777065690094787
1499369111755,3.6316472114137923,0.15259021896690683,0.3967345693140487
1499369111771,3.2654306858930795,-0.03051804379333589,0.45777065690094787
1499369111787,3.0823224231326094,-0.09155413138023505,0.5798428320745188
1499369111803,2.8992141603723667,-0.213626306553806,0.7019150072480898
1499369111819,2.8381780727854675,-0.2746623941404778,0.7629510948347615
1499369111835,2.655069810025225,-0.33569848172737693,0.7629510948347615
1499369111851,2.5940337224383256,-0.3967345693140487,0.6408789196611906
1499369111867,2.8992141603723667,-0.213626306553806,0.6408789196611906
1499369111883,3.2043945983061803,-0.09155413138023505,0.5188067444876197
1499369111899,3.570611123826893,0.09155413138023505,0.45777065690094787
1499369111915,3.814755474174035,0.2746623941404778,0.45777065690094787
1499369111931,3.875791561760934,0.33569848172737693,0.45777065690094787
1499369111947,3.7537193865873633,0.33569848172737693,0.33569848172737693
1499369111963,3.2043945983061803,-0.09155413138023505,0.3967345693140487
1499369111979,2.4719615472647547,-0.5798428320745188,0.3967345693140487
1499369111995,1.8616006713969,-0.7019150072480898,0.5188067444876197
1499369112011,1.8005645838102282,-0.5798428320745188,0.6408789196611906
1499369112027,2.288853284504512,-0.213626306553806,0.6408789196611906
1499369112043,2.655069810025225,0.03051804379333589,0.7019150072480898
1499369112059,2.7161058976118966,0.03051804379333589,0.6408789196611906
1499369112075,2.5940337224383256,-0.213626306553806,0.6408789196611906
1499369112091,2.7161058976118966,-0.3967345693140487,0.5188067444876197
1499369112107,2.9602502479590385,-0.2746623941404778,0.45777065690094787
1499369112123,3.3264667734797513,0.03051804379333589,0.3967345693140487
1499369112139,3.570611123826893,0.3967345693140487,0.45777065690094787
1499369112155,3.4485389486533222,0.33569848172737693,0.5188067444876197
1499369112171,2.8381780727854675,-0.15259021896690683,0.5798428320745188
1499369112187,2.227817196917613,-0.7019150072480898,0.6408789196611906
1499369112203,1.983672846570471,-0.8850232700083325,0.6408789196611906
1499369112219,2.3498893720911838,-0.45777065690094787,0.7019150072480898
1499369112235,2.8992141603723667,0.09155413138023505,0.7019150072480898
1499369112251,3.1433585107195086,0.45777065690094787,0.7019150072480898
1499369112267,3.0212863355459376,0.213626306553806,0.7019150072480898
1499369112283,2.7771419851987957,-0.2746623941404778,0.5798428320745188
1499369112299,2.7771419851987957,-0.45777065690094787,0.45777065690094787
1499369112315,2.8381780727854675,-0.45777065690094787,0.45777065690094787
1499369112331,3.0212863355459376,-0.213626306553806,0.5188067444876197
1499369112347,3.3264667734797513,0.09155413138023505,0.5798428320745188
1499369112363,3.570611123826893,0.2746623941404778,0.5798428320745188
1499369112379,3.570611123826893,0.213626306553806,0.5188067444876197
1499369112395,3.0823224231326094,-0.15259021896690683,0.5188067444876197
1499369112411,2.7161058976118966,-0.45777065690094787,0.5798428320745188
1499369112427,2.7161058976118966,-0.33569848172737693,0.5798428320745188
1499369112443,2.8992141603723667,-0.03051804379333589,0.5798428320745188
1499369112459,3.1433585107195086,0.15259021896690683,0.5188067444876197
1499369112475,3.2043945983061803,0.15259021896690683,0.5188067444876197
1499369112491,3.3264667734797513,0.213626306553806,0.45777065690094787
1499369112507,3.2654306858930795,0.09155413138023505,0.3967345693140487
1499369112523,3.1433585107195086,-0.03051804379333589,0.33569848172737693
1499369112539,2.7771419851987957,-0.2746623941404778,0.3967345693140487
1499369112555,2.3498893720911838,-0.5188067444876197,0.33569848172737693
1499369112571,2.105745021744042,-0.5798428320745188,0.45777065690094787
1499369112587,2.288853284504512,-0.33569848172737693,0.5188067444876197
1499369112603,2.5940337224383256,-0.03051804379333589,0.5798428320745188
1499369112619,2.8381780727854675,0.213626306553806,0.6408789196611906
1499369112635,2.9602502479590385,0.213626306553806,0.5798428320745188
1499369112651,2.7771419851987957,0.03051804379333589,0.5188067444876197
1499369112667,2.655069810025225,-0.2746623941404778,0.45777065690094787
1499369112683,2.655069810025225,-0.33569848172737693,0.5188067444876197
1499369112699,2.7161058976118966,-0.213626306553806,0.5188067444876197
1499369112715,2.9602502479590385,0.15259021896690683,0.45777065690094787
1499369112731,3.3264667734797513,0.33569848172737693,0.5188067444876197
1499369112747,3.2654306858930795,0.2746623941404778,0.45777065690094787
1499369112763,2.9602502479590385,0.03051804379333589,0.5188067444876197
1499369112779,2.655069810025225,-0.3967345693140487,0.45777065690094787
1499369112795,2.655069810025225,-0.33569848172737693,0.45777065690094787
1499369112811,3.0823224231326094,-0.09155413138023505,0.33569848172737693
1499369112827,3.3875028610666504,0.213626306553806,0.2746623941404778
1499369112843,3.6316472114137923,0.3967345693140487,0.2746623941404778
1499369112859,3.814755474174035,0.3967345693140487,0.2746623941404778
1499369112875,3.570611123826893,0.03051804379333589,0.15259021896690683
1499369112891,2.8992141603723667,-0.45777065690094787,0.09155413138023505
1499369112907,2.5940337224383256,-0.6408789196611906,0.213626306553806
1499369112923,3.0212863355459376,-0.213626306553806,0.33569848172737693
1499369112939,3.997863736934505,0.45777065690094787,0.45777065690094787
1499369112955,4.547188525215461,0.8850232700083325,0.33569848172737693
1499369112971,4.303044174868319,0.6408789196611906,0.3967345693140487
1499369112987,3.936827649347606,0.33569848172737693,0.45777065690094787
1499369113003,3.6316472114137923,0.09155413138023505,0.45777065690094787
1499369113019,3.692683299000464,0.213626306553806,0.45777065690094787
1499369113035,3.5095750362402214,0.2746623941404778,0.5188067444876197
1499369113051,3.2043945983061803,0.213626306553806,0.45777065690094787
1499369113067,2.9602502479590385,-0.03051804379333589,0.45777065690094787
1499369113083,2.8992141603723667,-0.2746623941404778,0.3967345693140487
1499369113099,2.7771419851987957,-0.3967345693140487,0.33569848172737693
1499369113115,2.7161058976118966,-0.33569848172737693,0.33569848172737693
1499369113131,2.8381780727854675,-0.15259021896690683,0.33569848172737693
1499369113147,3.1433585107195086,0.03051804379333589,0.3967345693140487
1499369113163,3.2043945983061803,0.213626306553806,0.45777065690094787
1499369113179,3.1433585107195086,0.213626306553806,0.5188067444876197
1499369113195,2.8381780727854675,0.03051804379333589,0.6408789196611906
1499369113211,2.4719615472647547,-0.03051804379333589,0.7019150072480898
1499369113227,2.227817196917613,-0.213626306553806,0.7019150072480898
1499369113243,2.166781109330941,-0.213626306553806,0.7629510948347615
1499369113259,2.227817196917613,-0.09155413138023505,0.7629510948347615
1499369113275,2.288853284504512,0.03051804379333589,0.7629510948347615
1499369113291,2.532997634851654,0.213626306553806,0.7019150072480898
1499369113307,2.532997634851654,0.15259021896690683,0.7019150072480898
1499369113323,2.3498893720911838,-0.03051804379333589,0.7629510948347615
1499369113339,2.166781109330941,-0.2746623941404778,0.7629510948347615
1499369113355,2.04470893415737,-0.3967345693140487,0.7019150072480898
1499369113371,2.227817196917613,-0.33569848172737693,0.7629510948347615
1499369113387,2.410925459678083,0.03051804379333589,0.7629510948347615
1499369113403,2.3498893720911838,0.15259021896690683,0.8239871824216607
1499369113419,2.227817196917613,-0.03051804379333589,0.8850232700083325
1499369113435,2.166781109330941,-0.213626306553806,0.9460593575952316
1499369113451,2.105745021744042,-0.3967345693140487,0.9460593575952316
1499369113467,1.8616006713969,-0.5188067444876197,0.8239871824216607
1499369113483,1.739528496223329,-0.5798428320745188,1.0070954451819034
1499369113499,1.983672846570471,-0.45777065690094787,1.0070954451819034
1499369113515,2.4719615472647547,-0.09155413138023505,1.0681315327688026
1499369113531,2.9602502479590385,0.09155413138023505,1.0681315327688026
1499369113547,3.1433585107195086,0.15259021896690683,1.1291676203554744
1499369113563,3.2043945983061803,0.09155413138023505,1.0681315327688026
1499369113579,3.2654306858930795,0.213626306553806,0.8850232700083325
1499369113595,3.570611123826893,0.15259021896690683,0.7019150072480898
1499369113611,3.3875028610666504,-0.15259021896690683,0.5798428320745188
1499369113627,2.8992141603723667,-0.5188067444876197,0.5188067444876197
1499369113643,3.0212863355459376,-0.45777065690094787,0.5188067444876197
1499369113659,3.5095750362402214,-0.213626306553806,0.45777065690094787
1499369113675,3.814755474174035,0.09155413138023505,0.3967345693140487
1499369113691,3.814755474174035,0.15259021896690683,0.33569848172737693
1499369113707,3.6316472114137923,0.03051804379333589,0.2746623941404778
1499369113723,3.3264667734797513,-0.15259021896690683,0.3967345693140487
1499369113739,3.2654306858930795,-0.213626306553806,0.5188067444876197
1499369113755,3.3264667734797513,-0.03051804379333589,0.5188067444876197
1499369113771,3.3875028610666504,0.15259021896690683,0.5188067444876197
1499369113787,3.3875028610666504,0.09155413138023505,0.5188067444876197
1499369113803,3.0823224231326094,-0.09155413138023505,0.5188067444876197
1499369113819,2.8992141603723667,-0.2746623941404778,0.5188067444876197
1499369113835,2.8381780727854675,-0.33569848172737693,0.5188067444876197
1499369113851,2.8381780727854675,-0.2746623941404778,0.45777065690094787
1499369113867,3.1433585107195086,-0.15259021896690683,0.3967345693140487
1499369113883,3.4485389486533222,0.09155413138023505,0.33569848172737693
1499369113899,3.4485389486533222,0.09155413138023505,0.33569848172737693
1499369113915,3.2043945983061803,0.09155413138023505,0.45777065690094787
1499369113931,3.0212863355459376,-0.03051804379333589,0.5798428320745188
1499369113947,2.7161058976118966,-0.09155413138023505,0.7019150072480898
1499369113963,2.410925459678083,-0.09155413138023505,0.7629510948347615
1499369113979,2.410925459678083,-0.15259021896690683,0.7629510948347615
1499369113995,2.3498893720911838,-0.15259021896690683,0.7019150072480898
1499369114011,2.410925459678083,-0.213626306553806,0.7019150072480898
1499369114027,2.532997634851654,-0.15259021896690683,0.6408789196611906
1499369114043,2.7771419851987957,-0.213626306553806,0.5188067444876197
1499369114059,2.8992141603723667,-0.33569848172737693,0.5188067444876197
1499369114075,2.8992141603723667,-0.33569848172737693,0.5188067444876197
1499369114091,3.3264667734797513,-0.09155413138023505,0.5798428320745188
1499369114107,3.936827649347606,0.45777065690094787,0.5188067444876197
1499369114123,4.486152437628789,0.7629510948347615,0.6408789196611906
1499369114139,4.242008087281647,0.6408789196611906,0.8239871824216607
1499369114155,3.3875028610666504,0.15259021896690683,0.8239871824216607
1499369114171,2.5940337224383256,-0.213626306553806,0.7629510948347615
1499369114187,2.227817196917613,-0.5188067444876197,0.7629510948347615
1499369114203,2.227817196917613,-0.5798428320745188,0.6408789196611906
1499369114219,2.4719615472647547,-0.45777065690094787,0.5188067444876197
1499369114235,2.8381780727854675,-0.2746623941404778,0.5188067444876197
1499369114251,3.2043945983061803,-0.15259021896690683,0.45777065690094787
1499369114267,3.4485389486533222,-0.09155413138023505,0.33569848172737693
1499369114283,3.4485389486533222,-0.09155413138023505,0.33569848172737693
1499369114299,3.2043945983061803,-0.03051804379333589,0.5188067444876197
1499369114315,3.0212863355459376,-0.09155413138023505,0.6408789196611906
1499369114331,2.7771419851987957,-0.15259021896690683,0.7019150072480898
1499369114347,2.5940337224383256,-0.213626306553806,0.6408789196611906
1499369114363,2.655069810025225,-0.15259021896690683,0.6408789196611906
1499369114379,2.7771419851987957,-0.09155413138023505,0.5798428320745188
1499369114395,2.655069810025225,-0.213626306553806,0.6408789196611906
1499369114411,2.4719615472647547,-0.45777065690094787,0.6408789196611906
1499369114427,2.532997634851654,-0.5798428320745188,0.5188067444876197
1499369114443,2.9602502479590385,-0.3967345693140487,0.5798428320745188
1499369114459,3.6316472114137923,0.15259021896690683,0.45777065690094787
1499369114475,4.242008087281647,0.6408789196611906,0.45777065690094787
1499369114491,4.303044174868319,0.7019150072480898,0.5188067444876197
1499369114507,3.7537193865873633,0.3967345693140487,0.45777065690094787
1499369114523,2.9602502479590385,-0.03051804379333589,0.6408789196611906
1499369114539,2.410925459678083,-0.45777065690094787,0.7019150072480898
1499369114555,1.8616006713969,-0.7019150072480898,0.7629510948347615
1499369114571,1.4343480582895154,-0.7629510948347615,0.7629510948347615
1499369114587,1.4953841458761872,-0.7019150072480898,0.8239871824216607
1499369114603,1.8616006713969,-0.5798428320745188,0.7629510948347615
1499369114619,2.410925459678083,-0.33569848172737693,0.6408789196611906
1499369114635,2.9602502479590385,-0.09155413138023505,0.5188067444876197
1499369114651,3.4485389486533222,0.03051804379333589,0.45777065690094787
1499369114667,3.4485389486533222,-0.03051804379333589,0.45777065690094787
1499369114683,3.5095750362402214,0.15259021896690683,0.5798428320745188
1499369114699,3.814755474174035,0.5188067444876197,0.6408789196611906
1499369114715,3.997863736934505,0.8850232700083325,0.7019150072480898
1499369114731,3.814755474174035,0.7629510948347615,0.8239871824216607
1499369114747,3.1433585107195086,0.213626306553806,0.8850232700083325
1499369114763,2.227817196917613,-0.5188067444876197,0.8239871824216607
1499369114779,1.8005645838102282,-0.8850232700083325,0.7629510948347615
1499369114795,2.04470893415737,-0.7019150072480898,0.7019150072480898
1499369114811,2.7771419851987957,-0.213626306553806,0.5798428320745188
1499369114827,3.5095750362402214,0.3967345693140487,0.5188067444876197
1499369114843,3.814755474174035,0.6408789196611906,0.5188067444876197
1499369114859,3.5095750362402214,0.213626306553806,0.3967345693140487
1499369114875,2.532997634851654,-0.7629510948347615,0.3967345693140487
1499369114891,1.6174563210497581,-1.4343480582895154,0.3967345693140487
1499369114907,1.4953841458761872,-1.3122758831159445,0.45777065690094787
1499369114923,2.3498893720911838,-0.45777065690094787,0.5798428320745188
1499369114939,3.2654306858930795,0.3967345693140487,0.6408789196611906
1499369114955,3.570611123826893,0.7019150072480898,0.6408789196611906
1499369114971,3.2654306858930795,0.33569848172737693,0.7019150072480898
1499369114987,2.655069810025225,-0.2746623941404778,0.7629510948347615
1499369115003,2.288853284504512,-0.7629510948347615,0.7019150072480898
1499369115019,2.4719615472647547,-0.5798428320745188,0.7629510948347615
1499369115035,3.0823224231326094,-0.03051804379333589,0.7629510948347615
1499369115051,3.6316472114137923,0.5188067444876197,0.7629510948347615
1499369115067,3.6316472114137923,0.5798428320745188,0.6408789196611906
1499369115083,3.1433585107195086,0.09155413138023505,0.6408789196611906
1499369115099,2.4719615472647547,-0.6408789196611906,0.6408789196611906
1499369115115,2.105745021744042,-0.9460593575952316,0.6408789196611906
1499369115131,2.3498893720911838,-0.6408789196611906,0.5798428320745188
1499369115147,2.655069810025225,-0.15259021896690683,0.45777065690094787
1499369115163,2.9602502479590385,0.3967345693140487,0.45777065690094787
1499369115179,3.3875028610666504,0.6408789196611906,0.6408789196611906
1499369115195,2.9602502479590385,0.213626306553806,0.7019150072480898
1499369115211,2.655069810025225,-0.2746623941404778,0.5798428320745188
1499369115227,2.4719615472647547,-0.5188067444876197,0.5188067444876197
1499369115243,2.532997634851654,-0.5798428320745188,0.45777065690094787
1499369115259,2.8381780727854675,-0.33569848172737693,0.5188067444876197
1499369115275,3.1433585107195086,-0.03051804379333589,0.5798428320745188
1499369115291,3.3264667734797513,0.213626306553806,0.5798428320745188
1499369115307,3.570611123826893,0.33569848172737693,0.6408789196611906
1499369115323,3.5095750362402214,0.213626306553806,0.7019150072480898
1499369115339,3.1433585107195086,0.03051804379333589,0.6408789196611906
1499369115355,2.9602502479590385,-0.09155413138023505,0.5798428320745188
1499369115371,2.8381780727854675,-0.213626306553806,0.5188067444876197
1499369115387,2.8992141603723667,-0.2746623941404778,0.5188067444876197
1499369115403,3.1433585107195086,-0.03051804379333589,0.5188067444876197
1499369115419,3.4485389486533222,0.2746623941404778,0.45777065690094787
1499369115435,3.4485389486533222,0.33569848172737693,0.3967345693140487
1499369115451,3.0212863355459376,-0.09155413138023505,0.45777065690094787
1499369115467,2.410925459678083,-0.5798428320745188,0.45777065690094787
1499369115483,1.983672846570471,-0.7629510948347615,0.45777065690094787
1499369115499,2.105745021744042,-0.5798428320745188,0.5188067444876197
1499369115515,2.5940337224383256,-0.09155413138023505,0.5188067444876197
1499369115531,2.8992141603723667,0.213626306553806,0.5798428320745188
1499369115547,2.9602502479590385,0.213626306553806,0.5188067444876197
1499369115563,2.8992141603723667,-0.09155413138023505,0.45777065690094787
1499369115579,2.8381780727854675,-0.213626306553806,0.45777065690094787
1499369115595,3.0212863355459376,-0.213626306553806,0.45777065690094787
1499369115611,3.2654306858930795,0.15259021896690683,0.45777065690094787
1499369115627,3.570611123826893,0.3967345693140487,0.5188067444876197
1499369115643,3.5095750362402214,0.3967345693140487,0.5188067444876197
1499369115659,3.0212863355459376,0.03051804379333589,0.5188067444876197
1499369115675,2.3498893720911838,-0.5188067444876197,0.5798428320745188
1499369115691,1.983672846570471,-0.7629510948347615,0.5798428320745188
1499369115707,2.105745021744042,-0.5798428320745188,0.5798428320745188
1499369115723,2.532997634851654,-0.15259021896690683,0.5188067444876197
1499369115739,2.9602502479590385,0.213626306553806,0.5188067444876197
1499369115755,3.2043945983061803,0.3967345693140487,0.5188067444876197
1499369115771,3.2043945983061803,0.2746623941404778,0.5188067444876197
1499369115787,3.1433585107195086,0.09155413138023505,0.45777065690094787
1499369115803,2.9602502479590385,-0.2746623941404778,0.33569848172737693
1499369115819,2.655069810025225,-0.3967345693140487,0.45777065690094787
1499369115835,2.655069810025225,-0.33569848172737693,0.5798428320745188
1499369115851,3.0823224231326094,-0.03051804379333589,0.5798428320745188
1499369115867,3.3264667734797513,0.2746623941404778,0.5798428320745188
1499369115883,3.3264667734797513,0.213626306553806,0.5188067444876197
1499369115899,3.0823224231326094,-0.09155413138023505,0.7019150072480898
1499369115915,2.7161058976118966,-0.3967345693140487,0.6408789196611906
1499369115931,2.7161058976118966,-0.33569848172737693,0.7019150072480898
1499369115947,2.8381780727854675,-0.03051804379333589,0.6408789196611906
1499369115963,3.0212863355459376,0.213626306553806,0.6408789196611906
1499369115979,3.0212863355459376,0.2746623941404778,0.5798428320745188
1499369115995,3.0212863355459376,0.09155413138023505,0.5188067444876197
1499369116011,2.8381780727854675,-0.09155413138023505,0.45777065690094787
1499369116027,2.532997634851654,-0.3967345693140487,0.45777065690094787
1499369116043,2.166781109330941,-0.5798428320745188,0.5188067444876197
1499369116059,2.105745021744042,-0.5188067444876197,0.5188067444876197
1499369116075,2.227817196917613,-0.2746623941404778,0.7019150072480898
1499369116091,2.532997634851654,-0.03051804379333589,0.7629510948347615
1499369116107,2.532997634851654,0.03051804379333589,0.8239871824216607
1499369116123,2.105745021744042,-0.33569848172737693,0.8239871824216607
1499369116139,1.5564202334630863,-0.8239871824216607,0.7629510948347615
1499369116155,1.5564202334630863,-1.0681315327688026,0.7019150072480898
1499369116171,1.983672846570471,-0.7019150072480898,0.6408789196611906
1499369116187,3.0212863355459376,-0.03051804379333589,0.7629510948347615
1499369116203,3.997863736934505,0.6408789196611906,0.7019150072480898
1499369116219,4.730296787975931,1.1291676203554744,0.5798428320745188
1499369116235,4.60822461280236,1.0070954451819034,0.45777065690094787
1499369116251,3.875791561760934,0.33569848172737693,0.5188067444876197
1499369116267,2.7771419851987957,-0.5798428320745188,0.5188067444876197
1499369116283,2.288853284504512,-0.8239871824216607,0.5798428320745188
1499369116299,2.3498893720911838,-0.5798428320745188,0.6408789196611906
1499369116315,2.655069810025225,-0.15259021896690683,0.6408789196611906
1499369116331,2.8381780727854675,0.213626306553806,0.5798428320745188
1499369116347,2.7771419851987957,0.03051804379333589,0.5188067444876197
1499369116363,2.410925459678083,-0.33569848172737693,0.45777065690094787
1499369116379,2.227817196917613,-0.7019150072480898,0.33569848172737693
1499369116395,2.3498893720911838,-0.7629510948347615,0.2746623941404778
1499369116411,2.7161058976118966,-0.45777065690094787,0.33569848172737693
1499369116427,3.2043945983061803,-0.03051804379333589,0.33569848172737693
1499369116443,3.875791561760934,0.5188067444876197,0.3967345693140487
1499369116459,4.242008087281647,0.7629510948347615,0.3967345693140487
1499369116475,3.875791561760934,0.5188067444876197,0.2746623941404778
1499369116491,3.7537193865873633,0.2746623941404778,0.3967345693140487
1499369116507,3.1433585107195086,-0.15259021896690683,0.45777065690094787
1499369116523,3.1433585107195086,-0.03051804379333589,0.45777065690094787
1499369116539,3.2043945983061803,0.15259021896690683,0.5188067444876197
1499369116555,3.1433585107195086,0.15259021896690683,0.5188067444876197
1499369116571,2.9602502479590385,0.09155413138023505,0.5188067444876197
1499369116587,2.8992141603723667,-0.09155413138023505,0.45777065690094787
1499369116603,2.8992141603723667,-0.213626306553806,0.3967345693140487
1499369116619,2.7771419851987957,-0.33569848172737693,0.33569848172737693
1499369116635,2.655069810025225,-0.33569848172737693,0.3967345693140487
1499369116651,2.7161058976118966,-0.03051804379333589,0.45777065690094787
1499369116667,2.9602502479590385,0.15259021896690683,0.5798428320745188
1499369116682,3.0823224231326094,0.2746623941404778,0.7019150072480898
1499369116698,3.0212863355459376,0.09155413138023505,0.6408789196611906
1499369116714,2.8381780727854675,-0.09155413138023505,0.3967345693140487
1499369116730,2.7771419851987957,-0.15259021896690683,0.45777065690094787
1499369116746,2.8381780727854675,-0.15259021896690683,0.5188067444876197
1499369116762,2.7771419851987957,-0.213626306553806,0.5798428320745188
1499369116778,2.8381780727854675,-0.15259021896690683,0.5188067444876197
1499369116794,2.8992141603723667,0.09155413138023505,0.45777065690094787
1499369116810,3.2654306858930795,0.33569848172737693,0.45777065690094787
1499369116826,3.3875028610666504,0.33569848172737693,0.3967345693140487
1499369116842,3.1433585107195086,0.03051804379333589,0.3967345693140487
1499369116858,2.8381780727854675,-0.213626306553806,0.45777065690094787
1499369116874,2.655069810025225,-0.213626306553806,0.45777065690094787
1499369116890,2.655069810025225,0.09155413138023505,0.45777065690094787
1499369116906,3.0212863355459376,0.5798428320745188,0.6408789196611906
1499369116922,2.7771419851987957,0.3967345693140487,0.7019150072480898
1499369116938,2.5940337224383256,0.15259021896690683,0.7019150072480898
1499369116954,2.166781109330941,-0.33569848172737693,0.7019150072480898
1499369116970,1.983672846570471,-0.6408789196611906,0.6408789196611906
1499369116986,2.227817196917613,-0.5188067444876197,0.6408789196611906
1499369117002,2.655069810025225,-0.15259021896690683,0.5798428320745188
1499369117018,3.1433585107195086,0.15259021896690683,0.5188067444876197
1499369117034,3.4485389486533222,0.33569848172737693,0.5798428320745188
1499369117050,3.7537193865873633,0.5188067444876197,0.5798428320745188
1499369117066,3.814755474174035,0.45777065690094787,0.5188067444876197
1499369117082,3.692683299000464,0.15259021896690683,0.7019150072480898
1499369117098,2.8992141603723667,-0.3967345693140487,0.7629510948347615
1499369117114,2.532997634851654,-0.5798428320745188,0.6408789196611906
1499369117130,2.7771419851987957,-0.2746623941404778,0.6408789196611906
1499369117146,3.3875028610666504,0.2746623941404778,0.5188067444876197
1499369117162,3.570611123826893,0.5188067444876197,0.5188067444876197
1499369117178,3.3264667734797513,0.2746623941404778,0.5188067444876197
1499369117194,2.8381780727854675,-0.2746623941404778,0.5188067444876197
1499369117210,2.4719615472647547,-0.7019150072480898,0.5188067444876197
1499369117226,2.4719615472647547,-0.5798428320745188,0.5188067444876197
1499369117242,2.8381780727854675,-0.09155413138023505,0.5188067444876197
1499369117258,3.0823224231326094,0.33569848172737693,0.5188067444876197
1499369117274,3.0823224231326094,0.3967345693140487,0.5798428320745188
1499369117290,2.8381780727854675,0.03051804379333589,0.5798428320745188
1499369117306,2.288853284504512,-0.5798428320745188,0.6408789196611906
1499369117322,1.983672846570471,-0.8850232700083325,0.6408789196611906
1499369117338,1.983672846570471,-0.7629510948347615,0.7019150072480898
1499369117354,2.5940337224383256,-0.3967345693140487,0.6408789196611906
1499369117370,3.2043945983061803,0.03051804379333589,0.5188067444876197
1499369117386,3.4485389486533222,0.33569848172737693,0.5188067444876197
1499369117402,3.6316472114137923,0.5188067444876197,0.45777065690094787
1499369117418,3.6316472114137923,0.45777065690094787,0.45777065690094787
1499369117434,3.2654306858930795,0.15259021896690683,0.6408789196611906
1499369117450,2.532997634851654,-0.45777065690094787,0.7019150072480898
1499369117466,2.166781109330941,-0.7629510948347615,0.6408789196611906
1499369117482,2.288853284504512,-0.6408789196611906,0.6408789196611906
1499369117498,2.5940337224383256,-0.213626306553806,0.7019150072480898
1499369117514,2.7771419851987957,0.09155413138023505,0.7629510948347615
1499369117530,2.7771419851987957,0.09155413138023505,0.7019150072480898
1499369117546,2.655069810025225,-0.09155413138023505,0.7629510948347615
1499369117562,2.5940337224383256,-0.2746623941404778,0.6408789196611906
1499369117578,2.7771419851987957,-0.2746623941404778,0.5798428320745188
1499369117594,3.1433585107195086,-0.213626306553806,0.45777065690094787
1499369117610,3.2654306858930795,-0.09155413138023505,0.45777065690094787
1499369117626,3.3264667734797513,-0.03051804379333589,0.5798428320745188
1499369117642,3.3875028610666504,0.03051804379333589,0.5798428320745188
1499369117658,3.4485389486533222,0.15259021896690683,0.5798428320745188
1499369117674,3.3875028610666504,0.2746623941404778,0.5798428320745188
1499369117690,3.2043945983061803,0.15259021896690683,0.7019150072480898
1499369117706,2.5940337224383256,-0.33569848172737693,0.7019150072480898
1499369117722,2.288853284504512,-0.5188067444876197,0.7629510948347615
1499369117738,2.5940337224383256,-0.3967345693140487,0.5798428320745188
1499369117754,3.0823224231326094,0.03051804379333589,0.45777065690094787
1499369117770,3.5095750362402214,0.3967345693140487,0.45777065690094787
1499369117786,3.6316472114137923,0.3967345693140487,0.3967345693140487
1499369117802,3.4485389486533222,0.09155413138023505,0.33569848172737693
1499369117818,2.8992141603723667,-0.3967345693140487,0.3967345693140487
1499369117834,2.532997634851654,-0.5798428320745188,0.45777065690094787
1499369117850,2.532997634851654,-0.2746623941404778,0.5188067444876197
1499369117866,2.7771419851987957,0.09155413138023505,0.5798428320745188
1499369117882,2.9602502479590385,0.15259021896690683,0.5798428320745188
1499369117898,2.7161058976118966,-0.15259021896690683,0.6408789196611906
1499369117914,2.532997634851654,-0.5188067444876197,0.5798428320745188
1499369117930,2.532997634851654,-0.45777065690094787,0.7019150072480898
1499369117946,2.8381780727854675,-0.09155413138023505,0.7019150072480898
1499369117962,3.1433585107195086,0.15259021896690683,0.6408789196611906
1499369117978,3.0823224231326094,0.15259021896690683,0.6408789196611906
1499369117994,2.8992141603723667,-0.03051804379333589,0.6408789196611906
1499369118010,2.655069810025225,-0.213626306553806,0.7019150072480898
1499369118026,2.3498893720911838,-0.5188067444876197,0.7019150072480898
1499369118042,2.288853284504512,-0.5798428320745188,0.6408789196611906
1499369118058,2.410925459678083,-0.33569848172737693,0.7019150072480898
1499369118074,2.655069810025225,-0.03051804379333589,0.7019150072480898
1499369118090,2.8992141603723667,0.15259021896690683,0.7019150072480898
1499369118106,2.8381780727854675,0.15259021896690683,0.7019150072480898
1499369118122,2.8381780727854675,0.09155413138023505,0.7019150072480898
1499369118138,2.7161058976118966,-0.09155413138023505,0.7629510948347615
1499369118154,2.7161058976118966,-0.15259021896690683,0.7629510948347615
1499369118170,2.8381780727854675,-0.213626306553806,0.6408789196611906
1499369118186,2.8992141603723667,-0.213626306553806,0.5188067444876197
1499369118202,2.7771419851987957,-0.213626306553806,0.5188067444876197
1499369118218,2.7771419851987957,-0.09155413138023505,0.6408789196611906
1499369118234,2.8992141603723667,-0.03051804379333589,0.7019150072480898
1499369118250,3.0212863355459376,-0.03051804379333589,0.6408789196611906
1499369118266,2.9602502479590385,-0.213626306553806,0.7019150072480898
1499369118282,2.7161058976118966,-0.3967345693140487,0.7629510948347615
1499369118298,2.5940337224383256,-0.33569848172737693,0.7019150072480898
1499369118314,2.7771419851987957,-0.15259021896690683,0.7019150072480898
1499369118330,3.2043945983061803,0.213626306553806,0.6408789196611906
1499369118346,3.4485389486533222,0.33569848172737693,0.5188067444876197
1499369118362,3.4485389486533222,0.213626306553806,0.45777065690094787
1499369118378,3.2654306858930795,-0.03051804379333589,0.3967345693140487
1499369118394,3.0212863355459376,-0.2746623941404778,0.45777065690094787
1499369118410,2.7161058976118966,-0.45777065690094787,0.45777065690094787
1499369118426,2.410925459678083,-0.45777065690094787,0.5188067444876197
1499369118442,2.3498893720911838,-0.15259021896690683,0.5188067444876197
1499369118458,2.5940337224383256,0.15259021896690683,0.6408789196611906
1499369118474,2.8381780727854675,0.2746623941404778,0.5798428320745188
1499369118490,2.7161058976118966,-0.09155413138023505,0.5798428320745188
1499369118506,2.3498893720911838,-0.45777065690094787,0.5798428320745188
1499369118522,2.166781109330941,-0.5798428320745188,0.5798428320745188
1499369118538,2.532997634851654,-0.33569848172737693,0.5798428320745188
1499369118554,3.0212863355459376,0.15259021896690683,0.5798428320745188
1499369118570,3.3875028610666504,0.5188067444876197,0.45777065690094787
1499369118586,3.5095750362402214,0.5188067444876197,0.45777065690094787
1499369118602,3.2043945983061803,0.15259021896690683,0.3967345693140487
1499369118618,2.7161058976118966,-0.33569848172737693,0.5188067444876197
1499369118634,2.288853284504512,-0.7019150072480898,0.5798428320745188
1499369118650,2.288853284504512,-0.5798428320745188,0.5188067444876197
1499369118666,2.655069810025225,-0.15259021896690683,0.5188067444876197
1499369118682,2.9602502479590385,0.213626306553806,0.5188067444876197
1499369118698,3.0212863355459376,0.213626306553806,0.5798428320745188
1499369118714,2.8992141603723667,0.03051804379333589,0.5798428320745188
1499369118730,2.8992141603723667,-0.15259021896690683,0.45777065690094787
1499369118746,2.9602502479590385,-0.213626306553806,0.33569848172737693
1499369118762,3.2043945983061803,-0.213626306553806,0.213626306553806
1499369118778,3.3264667734797513,-0.213626306553806,0.213626306553806
1499369118794,3.4485389486533222,-0.15259021896690683,0.33569848172737693
1499369118810,3.692683299000464,0.15259021896690683,0.3967345693140487
1499369118826,3.814755474174035,0.3967345693140487,0.5188067444876197
1499369118842,3.570611123826893,0.213626306553806,0.5188067444876197
1499369118858,2.8992141603723667,-0.213626306553806,0.6408789196611906
1499369118874,2.410925459678083,-0.5798428320745188,0.6408789196611906
1499369118890,2.166781109330941,-0.5798428320745188,0.7019150072480898
1499369118906,2.227817196917613,-0.3967345693140487,0.7629510948347615
1499369118922,2.3498893720911838,-0.09155413138023505,0.7629510948347615
1499369118938,2.655069810025225,0.09155413138023505,0.7019150072480898
1499369118954,2.9602502479590385,0.213626306553806,0.5798428320745188
1499369118970,2.9602502479590385,0.09155413138023505,0.5188067444876197
1499369118986,2.8381780727854675,-0.213626306553806,0.3967345693140487
1499369119002,2.7161058976118966,-0.33569848172737693,0.3967345693140487
1499369119018,2.532997634851654,-0.2746623941404778,0.5188067444876197
1499369119034,2.288853284504512,-0.2746623941404778,0.6408789196611906
1499369119050,2.3498893720911838,-0.09155413138023505,0.7629510948347615
1499369119066,2.410925459678083,0.09155413138023505,0.8239871824216607
1499369119082,2.4719615472647547,0.03051804379333589,0.8239871824216607
1499369119098,2.288853284504512,-0.2746623941404778,0.7019150072480898
1499369119114,2.166781109330941,-0.5798428320745188,0.5188067444876197
1499369119130,2.410925459678083,-0.6408789196611906,0.5798428320745188
1499369119146,2.7771419851987957,-0.2746623941404778,0.5798428320745188
1499369119162,3.1433585107195086,0.213626306553806,0.5798428320745188
1499369119178,3.3875028610666504,0.3967345693140487,0.5188067444876197
1499369119194,3.1433585107195086,0.15259021896690683,0.5188067444876197
1499369119210,2.8381780727854675,-0.2746623941404778,0.45777065690094787
1499369119226,2.532997634851654,-0.5188067444876197,0.45777065690094787
1499369119242,2.5940337224383256,-0.3967345693140487,0.5188067444876197
1499369119258,2.8381780727854675,-0.09155413138023505,0.5188067444876197
1499369119274,2.9602502479590385,0.09155413138023505,0.5188067444876197
1499369119290,2.8381780727854675,-0.03051804379333589,0.5798428320745188
1499369119306,2.7161058976118966,-0.15259021896690683,0.6408789196611906
1499369119322,2.655069810025225,-0.2746623941404778,0.6408789196611906
1499369119338,2.8381780727854675,-0.213626306553806,0.5188067444876197
1499369119354,2.8992141603723667,-0.2746623941404778,0.5188067444876197
1499369119370,2.7771419851987957,-0.33569848172737693,0.5188067444876197
1499369119386,2.8992141603723667,-0.213626306553806,0.6408789196611906
1499369119402,3.2654306858930795,0.2746623941404778,0.6408789196611906
1499369119418,3.6316472114137923,0.5188067444876197,0.5798428320745188
1499369119434,3.3875028610666504,0.213626306553806,0.45777065690094787
1499369119450,3.0823224231326094,0.09155413138023505,0.5188067444876197
1499369119466,3.0212863355459376,-0.03051804379333589,0.6408789196611906
1499369119482,3.0823224231326094,0.03051804379333589,0.5798428320745188
1499369119498,2.7771419851987957,-0.213626306553806,0.5798428320745188
1499369119514,2.410925459678083,-0.33569848172737693,0.5798428320745188
1499369119530,2.4719615472647547,-0.213626306553806,0.5188067444876197
1499369119546,2.9602502479590385,-0.03051804379333589,0.45777065690094787
1499369119562,3.2043945983061803,0.09155413138023505,0.33569848172737693
1499369119578,3.2043945983061803,-0.09155413138023505,0.33569848172737693
1499369119594,2.7771419851987957,-0.3967345693140487,0.3967345693140487
1499369119610,2.4719615472647547,-0.5188067444876197,0.5188067444876197
1499369119626,2.4719615472647547,-0.33569848172737693,0.6408789196611906
1499369119642,2.7161058976118966,0.15259021896690683,0.7019150072480898
1499369119658,2.8992141603723667,0.45777065690094787,0.7019150072480898
1499369119674,2.8381780727854675,0.2746623941404778,0.7019150072480898
1499369119690,2.5940337224383256,-0.15259021896690683,0.5798428320745188
1499369119706,2.532997634851654,-0.5188067444876197,0.5798428320745188
1499369119722,2.5940337224383256,-0.5798428320745188,0.5188067444876197
1499369119738,2.7771419851987957,-0.3967345693140487,0.5188067444876197
1499369119754,3.0823224231326094,0.09155413138023505,0.5188067444876197
1499369119770,3.2043945983061803,0.2746623941404778,0.5188067444876197
1499369119786,3.0212863355459376,0.09155413138023505,0.5188067444876197
1499369119802,2.655069810025225,-0.3967345693140487,0.5188067444876197
1499369119818,2.532997634851654,-0.45777065690094787,0.6408789196611906
1499369119834,2.7161058976118966,-0.15259021896690683,0.6408789196611906
1499369119850,2.8992141603723667,0.15259021896690683,0.5188067444876197
1499369119866,2.9602502479590385,0.2746623941404778,0.5798428320745188
1499369119882,2.7771419851987957,0.09155413138023505,0.6408789196611906
1499369119898,2.532997634851654,-0.2746623941404778,0.5798428320745188
1499369119914,2.4719615472647547,-0.33569848172737693,0.5188067444876197
1499369119930,2.5940337224383256,-0.2746623941404778,0.5188067444876197
1499369119946,2.7161058976118966,-0.213626306553806,0.3967345693140487
1499369119962,2.8381780727854675,-0.15259021896690683,0.45777065690094787
1499369119978,2.9602502479590385,-0.03051804379333589,0.5798428320745188
1499369119994,3.2654306858930795,0.213626306553806,0.6408789196611906
1499369120010,3.570611123826893,0.2746623941404778,0.5798428320745188
1499369120026,3.5095750362402214,0.03051804379333589,0.5188067444876197
1499369120042,3.3264667734797513,-0.03051804379333589,0.45777065690094787
1499369120058,3.3264667734797513,0.03051804379333589,0.45777065690094787
1499369120074,3.4485389486533222,0.213626306553806,0.3967345693140487
1499369120090,3.1433585107195086,0.03051804379333589,0.3967345693140487
1499369120106,2.655069810025225,-0.33569848172737693,0.45777065690094787
1499369120122,2.288853284504512,-0.6408789196611906,0.5188067444876197
1499369120138,2.410925459678083,-0.45777065690094787,0.45777065690094787
1499369120154,3.0212863355459376,-0.03051804379333589,0.3967345693140487
1499369120170,3.570611123826893,0.33569848172737693,0.33569848172737693
1499369120186,3.7537193865873633,0.3967345693140487,0.33569848172737693
1499369120202,3.3875028610666504,0.2746623941404778,0.3967345693140487
1499369120218,3.0212863355459376,0.03051804379333589,0.45777065690094787
1499369120234,2.7161058976118966,-0.2746623941404778,0.5188067444876197
1499369120250,2.410925459678083,-0.5188067444876197,0.6408789196611906
1499369120266,2.288853284504512,-0.45777065690094787,0.6408789196611906
1499369120282,2.4719615472647547,-0.2746623941404778,0.5798428320745188
1499369120298,2.7771419851987957,-0.15259021896690683,0.6408789196611906
1499369120314,2.9602502479590385,-0.03051804379333589,0.5798428320745188
1499369120330,3.1433585107195086,0.03051804379333589,0.5798428320745188
1499369120346,3.2043945983061803,0.15259021896690683,0.5188067444876197
1499369120362,3.0823224231326094,0.03051804379333589,0.5188067444876197
1499369120378,2.7771419851987957,-0.09155413138023505,0.5798428320745188
1499369120394,2.5940337224383256,-0.213626306553806,0.7019150072480898
1499369120410,2.5940337224383256,-0.09155413138023505,0.7019150072480898
1499369120426,2.4719615472647547,-0.03051804379333589,0.8239871824216607
1499369120442,2.3498893720911838,-0.15259021896690683,0.8239871824216607
1499369120458,2.166781109330941,-0.33569848172737693,0.8850232700083325
1499369120474,2.166781109330941,-0.5188067444876197,0.8850232700083325
1499369120490,2.410925459678083,-0.5188067444876197,0.7019150072480898
1499369120506,2.8992141603723667,-0.33569848172737693,0.5188067444876197
1499369120522,3.3264667734797513,-0.09155413138023505,0.45777065690094787
1499369120538,3.4485389486533222,0.09155413138023505,0.5188067444876197
1499369120554,3.4485389486533222,0.213626306553806,0.5188067444876197
1499369120570,3.3875028610666504,0.213626306553806,0.6408789196611906
1499369120586,3.4485389486533222,0.2746623941404778,0.7629510948347615
1499369120602,3.2043945983061803,0.03051804379333589,0.8239871824216607
1499369120618,2.7161058976118966,-0.3967345693140487,0.7629510948347615
1499369120634,2.4719615472647547,-0.6408789196611906,0.6408789196611906
1499369120650,2.655069810025225,-0.3967345693140487,0.5798428320745188
1499369120666,3.0823224231326094,0.03051804379333589,0.5188067444876197
1499369120682,3.3264667734797513,0.15259021896690683,0.45777065690094787
1499369120698,3.2654306858930795,-0.03051804379333589,0.5188067444876197
1499369120714,3.2043945983061803,-0.15259021896690683,0.5188067444876197
1499369120730,3.1433585107195086,-0.213626306553806,0.3967345693140487
1499369120746,2.9602502479590385,-0.213626306553806,0.45777065690094787
1499369120762,2.8381780727854675,-0.09155413138023505,0.3967345693140487
1499369120778,2.7771419851987957,0.03051804379333589,0.5188067444876197
1499369120794,2.7771419851987957,0.03051804379333589,0.5798428320745188
1499369120810,2.4719615472647547,-0.213626306553806,0.6408789196611906
1499369120826,2.227817196917613,-0.45777065690094787,0.6408789196611906
1499369120842,2.105745021744042,-0.5188067444876197,0.7629510948347615
1499369120858,2.410925459678083,-0.33569848172737693,0.7019150072480898
1499369120874,2.8381780727854675,0.03051804379333589,0.6408789196611906
1499369120890,3.2654306858930795,0.213626306553806,0.6408789196611906
1499369120906,3.570611123826893,0.33569848172737693,0.5798428320745188
1499369120922,3.3875028610666504,0.15259021896690683,0.45777065690094787
1499369120938,3.0823224231326094,-0.213626306553806,0.45777065690094787
1499369120954,2.7161058976118966,-0.45777065690094787,0.5188067444876197
1499369120970,2.7161058976118966,-0.3967345693140487,0.5188067444876197
1499369120986,2.8381780727854675,-0.15259021896690683,0.5798428320745188
1499369121002,2.8381780727854675,0.09155413138023505,0.7019150072480898
1499369121018,2.7771419851987957,0.15259021896690683,0.7019150072480898
1499369121034,2.655069810025225,-0.03051804379333589,0.7019150072480898
1499369121050,2.532997634851654,-0.2746623941404778,0.5798428320745188
1499369121066,2.655069810025225,-0.2746623941404778,0.5188067444876197
1499369121082,3.0212863355459376,-0.2746623941404778,0.3967345693140487
1499369121098,3.2043945983061803,-0.15259021896690683,0.3967345693140487
1499369121114,3.1433585107195086,-0.09155413138023505,0.5188067444876197
1499369121130,3.1433585107195086,0.09155413138023505,0.6408789196611906
1499369121146,3.2043945983061803,0.213626306553806,0.6408789196611906
1499369121162,3.1433585107195086,0.15259021896690683,0.6408789196611906
1499369121178,2.7771419851987957,-0.15259021896690683,0.7019150072480898
1499369121194,2.532997634851654,-0.2746623941404778,0.5798428320745188
1499369121210,2.655069810025225,-0.03051804379333589,0.45777065690094787
1499369121226,3.2654306858930795,0.5188067444876197,0.45777065690094787
1499369121242,3.5095750362402214,0.45777065690094787,0.213626306553806
1499369121258,3.5095750362402214,0.3967345693140487,0.213626306553806
1499369121274,3.3264667734797513,0.213626306553806,0.2746623941404778
1499369121290,3.3264667734797513,0.213626306553806,0.2746623941404778
1499369121306,2.8381780727854675,-0.03051804379333589,0.3967345693140487
1499369121322,2.4719615472647547,-0.5188067444876197,0.3967345693140487
1499369121338,1.983672846570471,-0.9460593575952316,0.5188067444876197
1499369121354,1.9226367589837992,-0.8850232700083325,0.5188067444876197
1499369121370,2.3498893720911838,-0.45777065690094787,0.5188067444876197
1499369121386,2.9602502479590385,0.03051804379333589,0.5798428320745188
1499369121402,3.3264667734797513,0.33569848172737693,0.5188067444876197
1499369121418,3.5095750362402214,0.33569848172737693,0.3967345693140487
1499369121434,3.570611123826893,0.15259021896690683,0.3967345693140487
1499369121450,3.3875028610666504,-0.09155413138023505,0.3967345693140487
1499369121466,3.0212863355459376,-0.213626306553806,0.45777065690094787
1499369121482,2.7161058976118966,-0.15259021896690683,0.5188067444876197
1499369121498,2.7161058976118966,0.2746623941404778,0.45777065690094787
1499369121514,2.7771419851987957,0.5798428320745188,0.5798428320745188
1499369121530,2.410925459678083,0.03051804379333589,0.6408789196611906
1499369121546,1.983672846570471,-0.5798428320745188,0.5188067444876197
1499369121562,1.8616006713969,-0.7629510948347615,0.5188067444876197
1499369121578,2.105745021744042,-0.3967345693140487,0.6408789196611906
1499369121594,2.7161058976118966,0.15259021896690683,0.5798428320745188
1499369121610,3.0823224231326094,0.5188067444876197,0.6408789196611906
1499369121626,3.1433585107195086,0.5188067444876197,0.5798428320745188
1499369121642,2.9602502479590385,0.09155413138023505,0.5188067444876197
1499369121658,2.8381780727854675,-0.213626306553806,0.45777065690094787
1499369121674,2.410925459678083,-0.7019150072480898,0.45777065690094787
1499369121690,3.0212863355459376,0.03051804379333589,0.45777065690094787
1499369121706,3.0823224231326094,0.09155413138023505,0.45777065690094787
1499369121722,3.1433585107195086,0.2746623941404778,0.5188067444876197
1499369121738,3.3264667734797513,0.33569848172737693,0.5798428320745188
1499369121754,3.0212863355459376,-0.09155413138023505,0.7019150072480898
1499369121770,2.8381780727854675,-0.2746623941404778,0.6408789196611906
1499369121786,2.7161058976118966,-0.3967345693140487,0.5798428320745188
1499369121802,2.8992141603723667,-0.09155413138023505,0.45777065690094787
1499369121818,3.2043945983061803,0.15259021896690683,0.5188067444876197
1499369121834,3.2654306858930795,0.2746623941404778,0.5798428320745188
1499369121850,3.1433585107195086,0.15259021896690683,0.45777065690094787
1499369121866,2.8381780727854675,-0.213626306553806,0.45777065690094787
1499369121882,2.4719615472647547,-0.5188067444876197,0.3967345693140487
1499369121898,2.288853284504512,-0.5798428320745188,0.5188067444876197
1499369121914,2.288853284504512,-0.3967345693140487,0.5798428320745188
1499369121930,2.288853284504512,-0.213626306553806,0.7019150072480898
1499369121946,2.410925459678083,0.03051804379333589,0.7019150072480898
1499369121962,2.5940337224383256,0.09155413138023505,0.7019150072480898
1499369121978,2.7771419851987957,0.15259021896690683,0.6408789196611906
1499369121994,2.8381780727854675,0.213626306553806,0.5798428320745188
1499369122010,2.7771419851987957,-0.03051804379333589,0.5188067444876197
1499369122026,2.7161058976118966,-0.33569848172737693,0.45777065690094787
1499369122042,2.655069810025225,-0.5188067444876197,0.5188067444876197
1499369122058,2.655069810025225,-0.3967345693140487,0.45777065690094787
1499369122074,2.655069810025225,-0.15259021896690683,0.5798428320745188
1499369122090,2.7161058976118966,-0.03051804379333589,0.7019150072480898
1499369122106,2.655069810025225,-0.03051804379333589,0.7019150072480898
1499369122122,2.7161058976118966,0.03051804379333589,0.6408789196611906
1499369122138,2.9602502479590385,0.09155413138023505,0.5798428320745188
1499369122154,3.0212863355459376,0.03051804379333589,0.5188067444876197
1499369122170,2.8992141603723667,-0.03051804379333589,0.5188067444876197
1499369122186,2.7771419851987957,-0.09155413138023505,0.5798428320745188
1499369122202,2.655069810025225,-0.09155413138023505,0.5798428320745188
1499369122218,2.7161058976118966,-0.09155413138023505,0.5798428320745188
1499369122234,2.8381780727854675,-0.15259021896690683,0.45777065690094787
1499369122250,2.7771419851987957,-0.3967345693140487,0.45777065690094787
1499369122266,2.655069810025225,-0.45777065690094787,0.5188067444876197
1499369122282,2.9602502479590385,-0.03051804379333589,0.5798428320745188
1499369122298,3.3264667734797513,0.33569848172737693,0.5188067444876197
1499369122314,3.3875028610666504,0.33569848172737693,0.6408789196611906
1499369122330,3.0823224231326094,0.15259021896690683,0.7019150072480898
1499369122346,2.8381780727854675,-0.09155413138023505,0.6408789196611906
1499369122362,2.9602502479590385,-0.03051804379333589,0.5798428320745188
1499369122378,2.8992141603723667,0.03051804379333589,0.45777065690094787
1499369122394,2.9602502479590385,0.213626306553806,0.5188067444876197
1499369122410,2.8381780727854675,0.09155413138023505,0.6408789196611906
1499369122426,2.655069810025225,-0.2746623941404778,0.5188067444876197
1499369122442,2.532997634851654,-0.5188067444876197,0.45777065690094787
1499369122458,2.532997634851654,-0.5798428320745188,0.3967345693140487
1499369122474,2.655069810025225,-0.3967345693140487,0.3967345693140487
1499369122490,2.7161058976118966,-0.09155413138023505,0.3967345693140487
1499369122506,2.7771419851987957,0.09155413138023505,0.5188067444876197
1499369122522,2.7771419851987957,0.15259021896690683,0.6408789196611906
1499369122538,2.655069810025225,0.03051804379333589,0.6408789196611906
1499369122554,2.410925459678083,-0.15259021896690683,0.6408789196611906
1499369122570,2.3498893720911838,-0.2746623941404778,0.5798428320745188
1499369122586,2.532997634851654,-0.2746623941404778,0.5798428320745188
1499369122602,2.7161058976118966,-0.33569848172737693,0.5188067444876197
1499369122618,2.7771419851987957,-0.33569848172737693,0.45777065690094787
1499369122634,2.8992141603723667,-0.15259021896690683,0.45777065690094787
1499369122650,3.0212863355459376,0.03051804379333589,0.5188067444876197
1499369122666,3.0823224231326094,0.09155413138023505,0.5188067444876197
1499369122682,2.9602502479590385,-0.03051804379333589,0.45777065690094787
1499369122698,2.8381780727854675,-0.15259021896690683,0.45777065690094787
1499369122714,2.7161058976118966,-0.15259021896690683,0.45777065690094787
1499369122730,2.532997634851654,-0.213626306553806,0.45777065690094787
1499369122746,2.288853284504512,-0.213626306553806,0.45777065690094787
1499369122762,2.3498893720911838,-0.15259021896690683,0.45777065690094787
1499369122778,2.655069810025225,0.213626306553806,0.5798428320745188
1499369122794,2.8381780727854675,0.5188067444876197,0.7019150072480898
1499369122810,2.7161058976118966,0.33569848172737693,0.6408789196611906
1499369122826,2.105745021744042,-0.5798428320745188,0.6408789196611906
1499369122842,1.739528496223329,-1.2512397955290453,0.6408789196611906
1499369122858,2.3498893720911838,-0.8239871824216607,0.6408789196611906
1499369122874,3.570611123826893,0.15259021896690683,0.5188067444876197
1499369122890,4.364080262455218,0.8850232700083325,0.45777065690094787
1499369122906,4.364080262455218,0.8850232700083325,0.5188067444876197
1499369122922,3.570611123826893,0.15259021896690683,0.6408789196611906
1499369122938,2.8992141603723667,-0.5188067444876197,0.7019150072480898
1499369122954,2.7161058976118966,-0.5188067444876197,0.6408789196611906
1499369122970,2.7771419851987957,-0.15259021896690683,0.6408789196611906
1499369122986,2.8992141603723667,0.15259021896690683,0.5798428320745188
1499369123002,2.8381780727854675,0.03051804379333589,0.5188067444876197
1499369123018,2.655069810025225,-0.33569848172737693,0.45777065690094787
1499369123034,2.410925459678083,-0.6408789196611906,0.3967345693140487
1499369123050,2.4719615472647547,-0.6408789196611906,0.33569848172737693
1499369123066,2.8381780727854675,-0.213626306553806,0.3967345693140487
1499369123082,2.9602502479590385,0.213626306553806,0.5188067444876197
1499369123098,3.0212863355459376,0.3967345693140487,0.6408789196611906
1499369123114,2.8992141603723667,0.33569848172737693,0.5798428320745188
1499369123130,2.7161058976118966,0.09155413138023505,0.5798428320745188
1499369123146,2.288853284504512,-0.213626306553806,0.5798428320745188
1499369123162,1.9226367589837992,-0.6408789196611906,0.6408789196611906
1499369123178,1.9226367589837992,-0.7629510948347615,0.6408789196611906
1499369123194,2.227817196917613,-0.5188067444876197,0.7019150072480898
1499369123210,2.7771419851987957,0.03051804379333589,0.6408789196611906
1499369123226,3.3264667734797513,0.45777065690094787,0.5798428320745188
1499369123242,3.3875028610666504,0.5188067444876197,0.5188067444876197
1499369123258,3.0823224231326094,-0.03051804379333589,0.3967345693140487
1499369123274,2.655069810025225,-0.5798428320745188,0.45777065690094787
1499369123290,2.532997634851654,-0.7629510948347615,0.5188067444876197
1499369123306,2.5940337224383256,-0.3967345693140487,0.5188067444876197
1499369123322,2.7771419851987957,0.09155413138023505,0.5798428320745188
1499369123338,2.8381780727854675,0.33569848172737693,0.6408789196611906
1499369123353,2.655069810025225,0.03051804379333589,0.7629510948347615
1499369123369,2.410925459678083,-0.33569848172737693,0.6408789196611906
1499369123385,2.4719615472647547,-0.3967345693140487,0.5798428320745188
1499369123401,3.0212863355459376,-0.213626306553806,0.3967345693140487
1499369123417,3.2654306858930795,-0.03051804379333589,0.33569848172737693
1499369123433,3.3264667734797513,0.213626306553806,0.45777065690094787
1499369123449,3.3875028610666504,0.2746623941404778,0.5188067444876197
1499369123465,3.3875028610666504,0.33569848172737693,0.5798428320745188
1499369123481,3.1433585107195086,0.09155413138023505,0.5798428320745188
1499369123497,2.7161058976118966,-0.2746623941404778,0.6408789196611906
1499369123513,2.4719615472647547,-0.5188067444876197,0.6408789196611906
1499369123529,2.4719615472647547,-0.45777065690094787,0.6408789196611906
1499369123545,2.8992141603723667,-0.15259021896690683,0.5188067444876197
1499369123561,3.3264667734797513,0.15259021896690683,0.45777065690094787
1499369123577,3.4485389486533222,0.33569848172737693,0.45777065690094787
1499369123593,3.2654306858930795,0.213626306553806,0.5188067444876197
1499369123609,3.0212863355459376,0.03051804379333589,0.5798428320745188
1499369123625,2.7771419851987957,-0.33569848172737693,0.5188067444876197
1499369123641,2.532997634851654,-0.45777065690094787,0.45777065690094787
1499369123657,2.3498893720911838,-0.45777065690094787,0.5798428320745188
1499369123673,2.288853284504512,-0.213626306553806,0.7019150072480898
