Timestamp (ms),Accel X (g),Accel Y (g),Accel Z (g)
1519782035443,-1.0175326161593041,-1.6591439688715952,-0.8876478217746242
1519782035475,0.01226825360494388,-1.1806210421911953,-0.6317845426108186
1519782035507,-0.8183108262760359,-0.3646906233310445,-4.0
1519782035539,-0.43305104142824424,-0.4530708781567103,-0.793408102540627
1519782035570,-0.3295338368810561,-0.3705500877393759,-0.6630350194552528
1519782035602,0.8736095216296631,-0.925246051728084,-0.34271763179980175
1519782035634,-0.76069275959411,-0.6825665674830241,-1.0917524986648357
1519782035666,-0.43256275272754996,-1.827603570611124,-0.6112764171816587
1519782035698,-0.21527428091859324,-0.39105821316853584,-0.23334096284428174
1519782035730,0.053772793163958,-2.277805752651255,-4.0
1519782035762,1.7266498817425804,-2.8124818799114975,0.7554436560616464
1519782035794,-0.08099488822766476,-0.7958495460440984,-0.7602044708934157
1519782035826,-0.5849088273441674,0.089906157015335,-1.057084000915541
1519782035858,0.02008087281605242,-0.7392080567635615,-0.7611810482948043
1519782035890,0.05767910276951227,-0.8163576714732588,-0.5873502708476388
1519782035922,-0.30560769054703574,-0.6435034714274814,-0.5829556725413902
1519782035954,-0.3710383764400702,-0.456000610360876,-1.0727092393377586
1519782035986,-0.43988708323796466,-0.2763103685053787,-0.7191882200350959
1519782036018,-0.2738689250019073,-0.42230869001297,-0.8056153200579841
1519782036050,-0.6728007934691385,0.1856107423514155,-1.1073777370870528
1519782036082,-0.32416266117341896,-0.5004348821240558,0.02642862592507811
1519782036114,-1.371053635461967,-0.33978789959563604,0.11480888075074347
1519782036146,-0.43305104142824424,-0.2982833600366215,-1.940398260471504
1519782036178,-1.0146028839551384,-0.7982909895475698,-0.28119325551232155
1519782036210,0.37116044861524333,-0.7113756008239873,1.7159075303273061
1519782036242,-1.058548867017624,-0.36371404592965595,-0.3075608453498129
1519782036274,-0.25726710917830165,0.2695963988708323,-0.46186007476920743
1519782036306,-0.8764171816586557,0.15143053330281564,0.4766308079652095
1519782036338,-0.7152819104295416,-0.8505378805218586,-0.8466315709163044
1519782036370,-0.902784771496147,-0.1039444571602961,-0.7597161821927214
1519782036402,-1.1532768749523155,-0.07562371252002764,-0.6850080109864956
1519782036434,-1.1903868162050815,-0.4281681544213014,-1.5170519569695582
1519782036466,-0.710887312123293,-0.2826581216144044,1.2310368505378806
1519782036498,-0.7582513160906386,0.2632486457618066,2.1319295033188377
1519782036530,-1.0404821850919355,0.5723353933012891,0.4776073853665981
1519782036562,-0.03216601815823594,-0.5394979781795985,0.9341573205157552
1519782036594,0.13287556267643286,-0.502388036926833,0.18121614404516695
1519782036626,-1.1020065613794157,0.6089570458533604,1.7681544213015945
1519782036657,-0.7924315251392384,-0.05365072098878443,-0.1732814526588844
1519782036689,-0.18255893797207579,-9.15541313801782E-4,0.07574578469520077
1519782036704,-0.4340276188296328,-0.5355916685740443,0.21930266269932108
1519782036736,-0.7738765545128556,0.1372701609826814,0.2905928130006865
1519782036768,-0.7602044708934157,-2.708476386663615,4.0
1519782036800,-0.1791409170672158,-0.3261158159761961,2.161715114061189
1519782036832,-0.03558403906309593,-1.2733958953231097,1.0034943160143435
1519782036864,-1.3881437399862668,-0.22650492103456177,-1.0072785534447242
1519782036896,-0.6786602578774699,-1.2006408789196614,3.072373540856031
1519782036928,-1.3632410162508584,-0.8588387884336615,1.4117036697947665
1519782036960,-1.1840390630960553,-0.9701686121919586,-0.08490119783321903
1519782036992,-0.015564202334630295,-1.310017547875181,-2.1298542763408865
1519782037024,-0.34515907530327317,-0.800244144350347,0.3843442435339899
1519782037056,-0.8832532234683756,-1.9770199130235753,-0.03704890516517878
1519782037088,-0.2909590295262072,-0.3436942092011903,1.1758602273594265
1519782037120,-0.06634622720683625,-0.8319829098954759,-0.37006179903868164
1519782037152,-0.37933928435187303,-0.6698710612649728,-0.9208514534218355
1519782037184,-1.254840924696727,-0.2680094605935759,-1.1400930800335698
1519782037216,1.2349431601434349,-1.2694895857175554,-0.13031204699778742
1519782037248,-1.1903868162050815,0.07916380560006075,-1.5273060196841381
1519782037280,-0.7733882658121614,-1.1562066071564812,-0.25091935606927596
1519782037311,-1.395468070496681,-0.7914549477378499,0.43903257801174966
1519782037343,-1.031204699778744,-0.2587319752803845,0.1890287632562755
1519782037375,-0.35492484931715884,-0.40814831769283577,0.7149156939040209
1519782037407,0.04840161745632088,-0.14154268711375595,-0.6430151827267871
1519782037439,0.2310215915159839,-0.9965362020294499,2.89219501029984
1519782037471,-0.4535591668574046,0.8267338063630119,1.3994964522774094
1519782037503,0.2578774700541695,0.024963759822995257,2.75205615320058
1519782037535,-0.11517509727626463,-0.3715266651407645,-0.10492103456168467
1519782037567,-0.37592126344701304,-0.844190127412833,-0.34906538490882744
1519782037599,-0.7079575799191273,-1.5746700236514841,1.260822461280232
1519782037631,-0.7226062409399558,-0.783154039826047,-0.01605249103532458
1519782037663,-0.5922331578545816,-0.9306172274357212,0.9810330357824064
1519782037695,-0.23675898374914173,0.04498359655146089,2.0572213321126114
1519782037727,-0.3734798199435416,-1.0673380636301215,0.1826810101472498
1519782037759,-0.456000610360876,-0.21820401312275894,-0.16058594644083302
1519782037791,-1.0399938963912412,-0.36908522163729307,3.2046997787441827
1519782037823,0.30768291752498644,-0.7162584878309302,-0.7133287556267645
1519782037855,0.028381780727855244,-0.9579613946746015,-1.0614785992217897
1519782037887,-0.22015716792553608,-0.4862745098039216,-2.446753643091478
1519782037919,-1.0546425574120697,-0.5541466392004271,-0.24603646906233312
1519782037951,0.35846494239719195,0.05914396887159512,0.4341496910048068
1519782037968,-0.09857328145265898,0.4136415655756469,0.02154573891813527
1519782038000,-1.882780193789578,-0.27826352330815585,-4.0
1519782038032,-1.1562066071564812,-1.2631418326085297,-0.38812848096437014
1519782038064,-1.1264209964141298,0.6006561379415576,0.7906004425116349
1519782038096,-0.4047302967879758,-0.7055161364156559,-1.7787747005416952
1519782038128,-0.10003814755474183,0.06060883497367797,-1.44429694056611
1519782038160,0.3067063401235979,-0.12591744869153887,-1.2782787823300525
1519782038191,-0.8031738765545127,-0.26849774929427017,-0.25091935606927596
1519782038223,-0.8124513618677041,-0.007263294422827471,-0.5228961623559929
1519782038255,-0.9188982986190584,-0.18353551537346435,-0.24164187075608456
1519782038287,-0.9057145037003127,0.23932249942778672,-0.5067826352330815
1519782038319,-0.8974135957885099,0.08014038300144932,-0.03851377126726163
1519782038351,-0.9472190432593273,0.716868848706798,-2.5629663538567176
1519782038383,-0.5907682917524988,0.4136415655756469,-1.2196841382467385
1519782038415,-1.1444876783398183,0.5235065232318608,1.700282291905089
1519782038447,-0.14544899671931022,0.24371709773403527,-0.724559395742733
1519782038479,-2.0463569085221636,2.161715114061189,2.2676737621118486
1519782038510,-0.5863736934462502,0.031311512932020946,1.3423666742961773
1519782038542,-0.7152819104295416,-0.07513542381933336,0.6631570916304268
1519782038574,-0.49750514991989014,-0.4125429159990843,0.09332417792019498
1519782038606,-0.34271763179980175,-0.7655756466010528,0.15436026550698134
1519782038638,-2.4340581368734266,-0.38715190356298157,4.0
1519782038670,-1.5268177309834439,-1.1845273517967496,1.979095140001526
1519782038702,-0.5922331578545816,-1.0981002517738614,0.2998702983138779
1519782038734,-0.33099870298313894,-0.5468223086900128,-0.8075684748607612
1519782038766,-1.802700846875715,-0.6234836346990158,1.3941252765697723
1519782038798,-0.20502021820401328,-2.3554436560616465,-0.27191577019913016
1519782038829,-0.9638208590829329,0.053284504463263715,-1.7860990310521094
1519782038861,-0.2611734187838559,-1.3637293049515526,0.21686121919584966
1519782038893,-0.08441290913252475,-1.3202716105897614,0.2515297169451438
1519782038925,-0.04437323567559304,-1.1400930800335698,1.2510566872663462
1519782038957,0.026916914625772392,-0.48773937590600447,-0.2162508583199818
1519782038989,-0.7172350652323187,-0.30218966964217575,0.40289921416037267
1519782039021,-0.7294422827496758,-0.5404745555809871,-0.22015716792553608
1519782039053,-0.9120622568093384,-1.9589532310978868,0.504951552605478
1519782039085,-1.296345464255741,-0.6395971618219272,1.1568169680323495
1519782039117,-1.1689021133745325,-0.906202792401007,1.033768215457389
1519782039149,1.6509651331349664,-3.4160067139696344,-0.30560769054703574
1519782039180,-0.7157701991302359,-0.2523842221713588,-0.05120927748531301
1519782039212,-2.106904707408255,3.4161287861448084,-2.4633554589150837
1519782039232,-1.2426337071793698,-0.22064545662623036,0.48786144808117804
1519782039263,-0.40912489509422434,-0.4862745098039216,0.19879453727016116
1519782039295,-0.3920347905699244,0.33795681696803204,0.6822003509575039
1519782039327,-0.6107881284809644,0.19537651636530118,0.821850919356069
1519782039359,-0.6430151827267871,-0.10540932326237895,0.7866941329060806
1519782039391,-0.1581445029373616,-0.28070496681162727,1.135332265201801
1519782039423,-0.00579842832074462,-0.7851071946288242,0.9151140611886781
1519782039455,-0.2714274814984359,-0.5009231708247501,1.2315251392385749
1519782039486,-0.4096131837949186,-0.49408712901503016,-0.1337300679026474
1519782039518,-0.622018768596933,-0.5180132753490501,-0.4125429159990843
1519782039550,4.0,-4.0,-3.7255817502098116
1519782039582,-0.23236438544289317,-1.0736858167391472,-0.9579613946746015
1519782039614,-0.7309071488517587,-0.5326619363698786,-1.0897993438620586
1519782039646,0.8018310826276034,1.4170748455024036,-2.026337071793698
1519782039678,-0.053162432288090145,0.7295643549248494,1.1792782482642865
1519782039709,-1.4569924467841613,0.43610284580758396,0.9702906843671322
1519782039741,1.3369954985885402,-0.5307087815671014,-1.9213550011444265
1519782039773,0.4160830090791183,-0.06341649500267055,-0.7167467765316244
1519782039805,-0.08099488822766476,-1.1273975738155184,0.8760509651331354
1519782039837,-0.12347600518806745,-0.8661631189440757,-0.4130312046997786
1519782039869,1.6665903715571835,-3.9998779278248264,-3.2534065766384375
1519782039901,0.5625696192874035,-3.9998779278248264,3.6485542076752884
1519782039932,-0.04046692607003877,0.023498893720912406,0.763256275272755
1519782039964,0.239810788128481,-0.40521858548867007,1.3184405279621574
1519782039996,-0.25384908827344166,-0.04486152437628732,2.7667048142214083
1519782040028,0.48444342717631805,-0.5121538109407187,3.673945220111391
1519782040060,0.9307392996108952,-1.6493781948577095,-0.4603952086671246
1519782040092,-0.24847791256580454,-0.34027618829633033,0.9634546425574122
1519782040124,0.8267338063630119,-1.4569924467841613,2.6753948271915773
1519782040155,-2.7177538719768064,1.6807507438773177,-2.1147173266193637
1519782040187,-0.08148317692835905,0.2940108339055465,-2.183566033417258
1519782040219,-0.3476005188067446,-0.3925230792706187,-0.23578240634775316
1519782040251,-0.042908369573510186,0.1167620355535206,0.7490959029526207
1519782040283,-0.021911955443655984,0.06402685587853796,1.4239108873121236
1519782040315,-0.012634470130464592,-0.06390478370336483,1.1265430685893039
1519782040346,0.09234760051880642,0.045471885252155175,1.102616922255283
1519782040378,0.07672236209658934,0.010315098802166744,1.0449988555733576
1519782040410,-4.272526131074983E-4,0.01373311970702673,1.0489051651789119
1519782040442,0.015197985809109582,0.00982681010147246,1.0064240482185092
1519782040474,0.015197985809109582,0.016662851911192433,1.014724956130312
1519782040493,-0.021911955443655984,0.04351873044937804,1.030350194552529
1519782040525,-0.09271381704432757,-0.15130846112764162,1.3531090257114515
1519782040557,0.34918745708400056,-0.06878767071030767,0.9834744792858778
1519782040589,0.43366140230411254,-0.131288624399176,0.061097123674372256
1519782040621,0.02008087281605242,0.004943923094529623,0.20758373388265827
1519782040652,0.11529716945143775,-0.5614709697108413,2.3829098954757004
1519782040684,0.9409933623254751,0.2612954909590295,1.8853437094682235
1519782040716,-2.288059815365835,1.3340657663843745,1.4688334477759977
1519782040748,-0.014587624933241727,-0.006286717021438903,0.9038834210727096
1519782040780,-0.004333562218661768,0.023010605020218122,1.011306935225452
1519782040812,0.01861600671396957,0.016662851911192433,1.030350194552529
1519782040844,0.015686274509803866,0.007385366598001042,1.023514152742809
1519782040875,0.031311512932020946,-0.11126878767071036,1.0039826047150378
1519782040907,0.027405203326466676,0.08014038300144932,0.9629663538567179
1519782040939,-0.02288853284504455,-0.28754100862134724,0.9414816510261694
1519782040971,-0.15277332722972448,-0.06341649500267055,1.1944151979858093
1519782041003,0.04693675135423803,0.0776989394979779,1.0752727550164032
1519782041035,0.19586480506599546,0.3662775616083005,1.37117570763714
1519782041066,-0.07415884641794479,0.22955672541390104,1.0581826504921032
1519782041098,-0.010193026626993174,0.005432211795223907,1.023514152742809
1519782041130,-0.010681315327687457,0.014221408407721015,1.0240024414435034
1519782041162,-0.0018921187151903496,0.003479056992446772,1.018142977035172
1519782041194,-0.006775005722133187,0.010803387502861028,1.037186236362249
1519782041226,0.002990768291752488,0.007385366598001042,1.0117952239261463
1519782041258,-0.013122758831158876,0.009338521400778177,1.0142366674296177
1519782041289,-0.010681315327687457,0.001037613488975353,1.0240024414435034
1519782041321,-0.011657892729076025,0.00982681010147246,1.0288853284504462
1519782041353,-0.028259708552681673,0.015197985809109582,1.0313267719539176
1519782041385,-0.018005645838101714,0.019592584115358136,1.0298619058518348
1519782041417,-0.0018921187151903496,0.016662851911192433,1.0410925459678033
1519782041449,-0.0018921187151903496,0.016662851911192433,1.0362096589608605
1519782041481,-4.272526131074983E-4,0.02008087281605242,1.0088654917219806
1519782041512,0.01226825360494388,0.011779964904249596,1.0020294499122606
1519782041544,0.00982681010147246,0.007873655298695326,1.0342565041580833
1519782041576,0.0039673456931410556,0.011779964904249596,1.0225375753414205
1519782041608,6.103608758678547E-5,0.006408789196612474,1.0171663996337834
1519782041640,0.0020141908903639205,0.019104295414663852,1.0244907301441977
1519782041672,0.0039673456931410556,0.019592584115358136,1.0259555962462805
1519782041704,5.493247882810692E-4,0.014709697108415298,1.0274204623483634
1519782041735,-0.003356984817273201,0.015686274509803866,1.014724956130312
1519782041755,0.0025024795910582043,0.023498893720912406,1.0171663996337834
1519782041786,0.00982681010147246,0.017639429312581,1.0200961318379491
1519782041818,0.007385366598001042,0.014221408407721015,1.0293736171511405
1519782041850,0.005920500495918191,0.007873655298695326,1.0240024414435034
1519782041882,0.005432211795223907,0.019592584115358136,1.0142366674296177
1519782041914,0.001037613488975353,0.01226825360494388,1.0225375753414205
1519782041946,0.0025024795910582043,0.01861600671396957,1.0274204623483634
1519782041978,0.006897077897306758,0.015197985809109582,1.0200961318379491
1519782042009,-0.0014038300144960658,0.01373311970702673,1.0308384832532234
1519782042041,0.001037613488975353,0.01617456321049815,1.0186312657358663
1519782042073,0.010803387502861028,0.019592584115358136,1.0264438849469748
1519782042105,5.493247882810692E-4,0.014221408407721015,1.0244907301441977
1519782042137,0.0015259021896696368,0.007385366598001042,1.0347447928587776
1519782042169,0.0039673456931410556,0.010803387502861028,1.0205844205386434
1519782042201,0.011291676203555312,0.019104295414663852,1.0142366674296177
1519782042232,-0.0014038300144960658,0.006408789196612474,1.0220492866407263
1519782042264,0.0020141908903639205,0.010315098802166744,1.0279087510490577
1519782042296,-0.004333562218661768,0.008850232700083893,1.0254673075455862
1519782042328,0.010803387502861028,0.00982681010147246,1.0332799267566948
1519782042360,-0.002868696116578917,0.011291676203555312,1.037186236362249
1519782042392,-0.00579842832074462,0.014709697108415298,1.0220492866407263
1519782042424,-0.002868696116578917,0.014221408407721015,1.0176546883344777
1519782042455,0.010315098802166744,0.002990768291752488,1.024979018844892
1519782042487,0.004943923094529623,0.017639429312581,1.0186312657358663
1519782042519,0.006408789196612474,0.003479056992446772,1.0298619058518348
1519782042551,-0.0014038300144960658,0.014221408407721015,1.030350194552529
1519782042583,6.103608758678547E-5,0.007873655298695326,1.0240024414435034
1519782042615,-0.006775005722133187,0.00982681010147246,1.0191195544365605
1519782042646,-0.010193026626993174,0.015197985809109582,1.0279087510490577
1519782042678,0.004943923094529623,0.015686274509803866,1.0332799267566948
1519782042710,-0.008239871824216038,0.01617456321049815,1.0288853284504462
1519782042742,-0.0014038300144960658,0.00982681010147246,1.0332799267566948
1519782042774,-0.00579842832074462,0.023498893720912406,1.018142977035172
1519782042806,0.002990768291752488,0.007873655298695326,1.0127718013275349
1519782042838,-9.15541313801782E-4,0.021057450217440987,1.0357213702601662
1519782042869,-0.0018921187151903496,0.013244831006332447,1.0088654917219806
1519782042901,0.00836194399938961,0.014221408407721015,1.0308384832532234
1519782042933,-9.15541313801782E-4,0.01373311970702673,1.0362096589608605
1519782042965,0.006408789196612474,0.014709697108415298,1.0240024414435034
1519782042997,0.004943923094529623,0.01373311970702673,1.026932173647669
1519782043016,0.006897077897306758,0.013244831006332447,1.0191195544365605
1519782043048,-0.003356984817273201,0.01226825360494388,1.024979018844892
1519782043080,0.004943923094529623,0.01861600671396957,1.0298619058518348
1519782043112,5.493247882810692E-4,0.01373311970702673,1.0205844205386434
1519782043143,0.0025024795910582043,0.014709697108415298,1.0191195544365605
1519782043175,0.005432211795223907,0.008850232700083893,1.0347447928587776
1519782043207,0.006408789196612474,0.011291676203555312,1.0171663996337834
1519782043239,0.01373311970702673,0.019104295414663852,1.0220492866407263
1519782043271,6.103608758678547E-5,0.015197985809109582,1.035233081559472
1519782043303,0.007873655298695326,0.01861600671396957,1.0308384832532234
1519782043335,0.006897077897306758,0.02008087281605242,1.0259555962462805
1519782043366,5.493247882810692E-4,0.007873655298695326,1.0093537804226749
1519782043398,-0.02386511024643312,0.004943923094529623,1.0557412069886318
1519782043430,0.013244831006332447,0.02008087281605242,1.0132600900282291
1519782043462,0.005920500495918191,0.019592584115358136,1.0323033493553062
1519782043494,0.004943923094529623,0.016662851911192433,1.0127718013275349
1519782043526,0.00836194399938961,0.015197985809109582,1.0205844205386434
1519782043558,0.00836194399938961,0.0039673456931410556,1.0171663996337834
1519782043589,0.006408789196612474,0.015686274509803866,1.0410925459678033
1519782043621,0.0025024795910582043,0.011291676203555312,1.026932173647669
1519782043653,0.005432211795223907,0.021057450217440987,1.0049591821164263
1519782043685,0.007385366598001042,0.011779964904249596,1.0200961318379491
1519782043717,5.493247882810692E-4,0.021057450217440987,1.0117952239261463
1519782043749,0.00836194399938961,0.02008087281605242,1.0244907301441977
1519782043781,0.0020141908903639205,0.0039673456931410556,1.0323033493553062
1519782043812,0.01861600671396957,0.01861600671396957,1.0132600900282291
1519782043844,0.008850232700083893,0.011779964904249596,1.0093537804226749
1519782043876,0.007873655298695326,0.011779964904249596,1.0161898222323948
1519782043908,0.010803387502861028,0.013244831006332447,1.0240024414435034
1519782043940,0.00982681010147246,0.00836194399938961,1.0157015335317006
1519782043972,0.007385366598001042,0.007873655298695326,1.0210727092393377
1519782044004,0.011779964904249596,0.011779964904249596,1.0069123369192035
1519782044035,0.0025024795910582043,0.015686274509803866,1.0171663996337834
1519782044067,-0.003356984817273201,0.006408789196612474,1.037186236362249
1519782044099,0.006897077897306758,0.017639429312581,1.0313267719539176
1519782044131,0.002990768291752488,0.017151140611886717,1.0186312657358663
1519782044163,0.007385366598001042,0.016662851911192433,1.0259555962462805
1519782044195,0.02154573891813527,0.02008087281605242,1.0093537804226749
1519782044226,0.005432211795223907,0.015686274509803866,1.0157015335317006
1519782044258,0.008850232700083893,0.015197985809109582,1.0264438849469748
1519782044278,0.010803387502861028,0.011779964904249596,1.0410925459678033
1519782044309,0.007873655298695326,0.005920500495918191,1.0244907301441977
1519782044341,0.002990768291752488,0.010315098802166744,1.0205844205386434
1519782044373,0.004943923094529623,0.010803387502861028,1.030350194552529
1519782044405,0.001037613488975353,0.004455634393835339,1.0332799267566948
1519782044437,0.007385366598001042,0.017639429312581,1.0244907301441977
1519782044469,0.005920500495918191,0.007385366598001042,1.0264438849469748
1519782044501,0.008850232700083893,0.016662851911192433,1.0240024414435034
1519782044532,0.010803387502861028,0.01861600671396957,1.024979018844892
1519782044564,6.103608758678547E-5,0.013244831006332447,1.0205844205386434
1519782044596,0.0039673456931410556,0.016662851911192433,1.024979018844892
1519782044628,0.00836194399938961,0.015197985809109582,1.0279087510490577
1519782044660,0.015197985809109582,0.005432211795223907,1.0264438849469748
1519782044692,0.013244831006332447,0.004943923094529623,1.0161898222323948
1519782044724,6.103608758678547E-5,0.010803387502861028,1.031815060654612
1519782044755,0.01617456321049815,0.017639429312581,1.0259555962462805
1519782044787,0.0015259021896696368,0.002990768291752488,1.0225375753414205
1519782044819,0.00836194399938961,0.019592584115358136,1.0225375753414205
1519782044851,0.004943923094529623,0.009338521400778177,1.0186312657358663
1519782044883,0.005920500495918191,0.01373311970702673,1.0196078431372548
1519782044915,0.011291676203555312,0.017639429312581,1.0122835126268406
1519782044947,0.010315098802166744,0.006408789196612474,1.0293736171511405
1519782044978,0.0015259021896696368,0.00982681010147246,1.0313267719539176
1519782045010,0.005432211795223907,0.002990768291752488,1.0464637216754404
1519782045042,-4.272526131074983E-4,0.013244831006332447,1.014724956130312
1519782045074,0.004943923094529623,0.00982681010147246,1.0142366674296177
1519782045106,0.014221408407721015,0.02008087281605242,1.0308384832532234
1519782045138,6.103608758678547E-5,0.013244831006332447,1.0244907301441977
1519782045169,-0.0038452735179674846,0.007385366598001042,1.0293736171511405
1519782045201,5.493247882810692E-4,0.006408789196612474,1.0171663996337834
1519782045233,0.0020141908903639205,0.015197985809109582,1.0161898222323948
1519782045265,0.0025024795910582043,0.017151140611886717,1.014724956130312
1519782045297,0.0015259021896696368,0.0020141908903639205,1.0240024414435034
1519782045329,0.006408789196612474,0.00982681010147246,1.0279087510490577
1519782045361,0.005920500495918191,0.011291676203555312,1.0288853284504462
1519782045392,-0.002868696116578917,0.010803387502861028,1.028397039749752
1519782045424,0.002990768291752488,0.011291676203555312,1.0308384832532234
1519782045456,-0.00970473792629889,0.014709697108415298,1.026932173647669
1519782045488,-0.002868696116578917,0.009338521400778177,1.0205844205386434
1519782045520,-0.0014038300144960658,0.004943923094529623,1.0279087510490577
1519782045540,-0.0014038300144960658,0.015686274509803866,1.0332799267566948
1519782045572,-0.0014038300144960658,0.0386358434424352,1.0498817425803004
1519782045604,0.06305027847714939,0.007873655298695326,1.0425574120698862
1519782045635,0.04693675135423803,-0.09564354924849328,1.1465629053177695
1519782045667,0.005920500495918191,0.015197985809109582,1.024979018844892
1519782045699,-0.008728160524910322,0.01373311970702673,1.0288853284504462
1519782045731,0.004943923094529623,0.013244831006332447,1.0240024414435034
1519782045763,0.0020141908903639205,0.011291676203555312,1.0308384832532234
1519782045795,0.0015259021896696368,0.00982681010147246,1.0186312657358663
1519782045826,-4.272526131074983E-4,0.00836194399938961,1.0171663996337834
1519782045858,0.021057450217440987,0.017639429312581,1.0030060273136492
1519782045890,-4.272526131074983E-4,0.01373311970702673,0.9990997177080949
1519782045922,-0.00970473792629889,0.013244831006332447,1.0196078431372548
1519782045954,0.0015259021896696368,0.01226825360494388,1.0381628137636376
1519782045986,0.005920500495918191,0.010803387502861028,1.0381628137636376
1519782046017,0.0015259021896696368,0.004455634393835339,1.0205844205386434
1519782046049,-4.272526131074983E-4,0.010803387502861028,1.0132600900282291
1519782046081,0.001037613488975353,0.009338521400778177,1.031815060654612
1519782046113,0.01226825360494388,0.019104295414663852,1.0293736171511405
1519782046145,0.0020141908903639205,0.005920500495918191,1.0293736171511405
1519782046177,-0.003356984817273201,0.013244831006332447,1.0205844205386434
1519782046208,-0.005310139620050336,0.015197985809109582,1.0205844205386434
1519782046240,-0.007263294422827471,0.016662851911192433,1.0157015335317006
1519782046272,0.0039673456931410556,0.00836194399938961,1.0161898222323948
1519782046304,0.007873655298695326,0.011779964904249596,1.0210727092393377
1519782046336,5.493247882810692E-4,0.004943923094529623,1.0347447928587776
1519782046368,-0.0014038300144960658,0.020569161516746703,1.0259555962462805
1519782046399,-0.005310139620050336,0.016662851911192433,1.028397039749752
1519782046431,6.103608758678547E-5,0.017151140611886717,1.021560997940032
1519782046463,0.007385366598001042,0.01373311970702673,1.0176546883344777
1519782046495,0.006897077897306758,0.024475471122300974,1.0254673075455862
1519782046527,-4.272526131074983E-4,0.00836194399938961,1.0469520103761347
1519782046559,0.006408789196612474,0.0020141908903639205,1.024979018844892
1519782046591,-0.007263294422827471,0.015197985809109582,1.044022278171969
1519782046622,0.005920500495918191,0.023010605020218122,1.018142977035172
1519782046654,6.103608758678547E-5,0.011291676203555312,1.0186312657358663
1519782046686,0.00836194399938961,0.013244831006332447,1.033768215457389
1519782046718,0.004943923094529623,0.006408789196612474,1.0376745250629433
1519782046750,0.0025024795910582043,0.015686274509803866,1.0323033493553062
1519782046782,0.006408789196612474,0.01226825360494388,1.0313267719539176
1519782046803,0.0039673456931410556,0.009338521400778177,1.0122835126268406
1519782046835,0.011291676203555312,0.014221408407721015,1.030350194552529
1519782046867,0.013244831006332447,0.021057450217440987,1.0298619058518348
1519782046898,6.103608758678547E-5,0.015197985809109582,1.0293736171511405
1519782046930,6.103608758678547E-5,0.013244831006332447,1.0200961318379491
1519782046962,-4.0,-1.9330739299610893,-0.13958953231097881
1519782046994,0.15924315251392418,3.1822384985122456,1.3755703059433895
1519782047026,0.08551155870908644,-0.39691767757686724,0.7671625848783092
1519782047057,0.10699626153963493,-0.42377355611505285,1.1968566414892807
1519782047089,-0.24310673685816742,-0.7226062409399558,0.9556420233463037
1519782047121,0.07867551689936647,-1.499473563744564,-0.19623102159151617
1519782047153,-1.3241779201953157,-3.7114213778896774,-3.4877851529716946
1519782047185,0.7378652628366522,-3.9296864271000227,-1.409140154116121
1519782047216,0.432684824902724,-0.8813000686655985,-1.1015182726787214
1519782047248,0.38580910963607273,-0.23041123064011604,-4.0
1519782047280,0.8257572289616233,-0.8837415121690699,-3.343251697566186
1519782047312,0.2632486457618066,-0.8383306630045015,-1.10933089188983
1519782047344,1.1480277714198523,-0.48578622110322733,-0.6776836804760813
1519782047375,0.3633478294041348,0.432684824902724,-0.8988784618905927
1519782047407,-0.10540932326237895,-0.03802548256656735,-0.45258258945601604
1519782047439,0.33990997177080917,0.07525749599450648,-0.3441824979018846
1519782047471,-0.23871213855191886,0.06939803158617508,0.5000686655985351
1519782047503,-0.5712367437247274,0.13385214007782142,-0.07953002212558191
1519782047534,-1.5639276722362099,-0.02777141985198739,0.08648813611047501
1519782047566,-1.8529945830472268,0.13092240787365572,0.982009613183795
1519782047598,-1.8144197756923783,0.40680552376592694,1.8125886930647743
1519782047630,-1.4086518654154268,0.580636301213092,1.4663920042725263
1519782047662,-0.5443808651865414,-0.40033569848172723,1.3667811093308915
1519782047693,1.1909971770809493,2.146578164339666,-2.5849393453879603
1519782047725,0.30768291752498644,-0.7455558098725872,0.08014038300144932
1519782047757,0.06695658808270366,-1.629358358129244,0.563546196688792
1519782047789,-0.14105439841306167,-1.544396124208438,3.490836957351034
1519782047820,-0.2621499961852445,0.032288090333409514,-0.7875486381322956
1519782047852,0.5132524605172808,-0.6781719691767756,-0.18695353627832434
1519782047884,-0.7694819562066071,-0.08538948653391332,-0.6503395132372014
1519782047916,-1.1762264438849468,0.880445563439384,0.43073167009994684
1519782047948,-0.7274891279468987,1.1211718928816659,-0.3041428244449529
1519782047979,0.16656748302433844,0.7315175097276265,-0.5648889906157017
1519782048011,-0.47064927138170454,0.4234073395895326,-0.6962386511024645
1519782048043,-0.3559014267185474,0.6651102464332039,-0.7147936217288473
1519782048066,0.11822690165560346,0.501533531700618,-1.5033798733501182
1519782048098,-0.02532997634851597,0.08844129091325215,-0.7353017471580072
1519782048130,0.606515602349889,-0.7743648432135499,-0.582467383840696
1519782048161,1.0796673533226517,-0.8842298008697642,-1.292927443350881
1519782048193,0.7681391622796978,-1.246540016784924,-0.27191577019913016
1519782048225,-1.9701838712138553,0.6465552758068212,1.5103379873350118
1519782048257,0.7935301747158006,-0.7040512703135731,2.7549858854047455
1519782048288,0.44831006332494105,-0.7289539940489815,0.6231174181734946
1519782048320,-0.4076600289921415,-0.1703517204547187,1.069901579308766
1519782048352,0.170962081330587,-0.6010223544670787,1.0200961318379491
1519782048384,0.20318913557640972,-1.097611963073167,1.1221484702830544
1519782048415,-0.4535591668574046,-0.5985809109636073,0.37311360341802047
1519782048447,-0.18255893797207579,-1.0902876325627529,2.6099641412985424
1519782048479,0.37018387121385476,-0.47650873579003594,0.10846112764171778
1519782048511,0.4776073853665981,-0.7499504081788357,0.32819104295414636
1519782048542,-0.22406347753109035,0.9654077973601893,0.928786144808118
1519782048574,-0.9980010681315328,-1.9164721141374836,-1.499473563744564
1519782048606,0.10308995193408066,-0.386175326161593,0.7139391165026323
1519782048638,0.508369573510338,-0.8778820477607385,0.7852292668039977
1519782048669,0.23443961242084388,-2.1523155565728236,1.4644388494697491
1519782048701,-0.42133211261158143,-0.3559014267185474,1.1822079804684522
1519782048733,0.09918364232852639,-1.1562066071564812,0.22125581750209822
1519782048765,-0.2318760967421989,-0.5331502250705729,1.0103303578240634
1519782048796,0.20416571297779829,-1.5229114213778896,0.1890287632562755
1519782048828,0.28961623559929794,0.34967574578469485,0.39752803845273554
1519782048860,0.25006485084306096,0.002990768291752488,1.0806439307240403
1519782048892,-0.9779812314030671,2.1123979552910654,3.0562600137331195
1519782048923,0.5821011673151748,-0.4867627985046159,-0.8017090104524298
1519782048955,0.7827878233005263,-0.5004348821240558,-0.47064927138170454
1519782048987,0.501533531700618,-0.4418402380407418,-0.25140764476997024
1519782049019,0.7315175097276265,-0.54193942168307,-0.5370565346761271
1519782049050,0.7754634927901121,-0.459418631265736,-0.4247501335164414
1519782049082,0.6148165102616918,-1.3354085603112842,0.8809338521400782
1519782049114,0.7095445181963838,-0.2225986114290075,-0.32709239337758467
1519782049146,0.8091554131380176,-0.15960936903944445,-1.3192950331883728
1519782049177,1.1856260013733122,-0.9872587167162585,-0.6347142748149843
1519782049209,-0.2948653391317615,-0.7494621194781415,-1.0653849088273444
1519782049241,-0.20648508430609613,-1.6098268101014725,1.2012512397955293
1519782049273,-2.368627450980392,0.5918669413290605,-2.207492179751278
1519782049305,-1.3520103761348898,0.0327763790341038,-4.0
1519782049329,-2.8945143816281376,-0.28754100862134724,-0.7758297093156328
1519782049360,-0.2255283436331732,-0.9550316624704358,0.07721065079728362
1519782049392,-1.1791561760891125,-0.727977416647593,-4.0
1519782049424,-0.7147936217288473,-0.8876478217746242,0.01861600671396957
1519782049456,0.021057450217440987,-0.26068513008316163,1.717372396429389
1519782049487,0.06988632028686936,-0.8725108720531014,-3.3237201495384143
1519782049519,0.1050431067368578,-0.7020981155107959,1.1348439765011067
1519782049551,-0.12249942778667888,-0.49164568551155874,0.031311512932020946
1519782049583,0.05816739147020655,-0.456000610360876,-1.2685130083161669
1519782049614,1.181719691767758,-0.5668421454184789,0.031311512932020946
1519782049646,0.12359807736324058,-0.9394064240482187,-0.5678187228198674
1519782049678,0.008850232700083893,-0.8515144579232472,-0.9018081940947584
1519782049709,-0.07562371252002764,-0.8603036545357443,-0.33978789959563604
1519782049741,0.38483253223468417,-0.75727473868925,-0.8642099641412986
1519782049773,-0.03704890516517878,-0.6937972075989931,-0.9516136415655758
1519782049805,-0.4652780956740674,-0.49115739681086446,-0.32758068207827895
1519782049836,-0.10833905546654465,-0.8744640268558785,-1.080033569848173
1519782049868,-0.6205539024948501,-0.8192874036774245,-0.9672388799877929
1519782049900,-1.3993743801022354,-0.6102998397802701,-2.645487144274052
1519782049931,-0.3539482719157703,-1.9618829633020525,-0.11419851987487606
1519782049963,-0.8686045624475471,-0.5648889906157017,0.6221408407721061
1519782049995,-0.320744640268559,-2.205539024948501,-1.5878538185702298
1519782050027,-1.217242694743267,-0.5233844510566872,-0.6552224002441442
1519782050058,-0.75727473868925,-0.4042420080872815,-0.27777523460746156
1519782050090,-0.6576638437476157,-0.6405737392233157,0.44782177462424677
1519782050122,-0.5634241245136189,-0.33636987869077606,0.530830853742275
1519782050154,-0.1010147249561304,-0.7333485923552301,-2.829083695735103
1519782050185,0.0020141908903639205,-1.6215457389181354,0.47858396276798665
1519782050217,-0.22113374532692465,-0.44379339284351893,-0.5697718776226446
1519782050249,0.017639429312581,-0.5458457312886242,-0.39642938887617296
1519782050280,-0.42230869001297,-0.6425268940260929,-0.8051270313572898
1519782050312,-0.6767071030746927,-0.2582436865796902,-0.8842298008697642
1519782050344,0.28326848249027226,-0.1400778210116731,-0.8935072861829556
1519782050376,-0.7582513160906386,-0.7055161364156559,-1.3783779659723812
1519782050407,-0.935500114442664,-0.3949645227740901,-0.6215304798962387
1519782050439,-0.1400778210116731,-1.2099183642328528,-0.4530708781567103
1519782050471,-1.6630502784771495,-0.15326161593041876,-0.5424277103837642
1519782050503,-0.8051270313572898,-0.26898603799496446,-0.4481879911497675
1519782050534,-2.4076905470359353,-0.7777828641184099,-0.19964904249637616
1519782050566,-1.4062104219119553,0.20172426947432687,-1.07856870374609
1519782050591,-1.6435187304493781,-1.0644083314259558,-0.5907682917524988
1519782050623,-0.7450675211718929,-0.4965285725185016,0.14801251239795565
1519782050654,-0.1400778210116731,-0.1220111390859846,-1.0668497749294272
1519782050686,-0.8822766460669871,-1.2211490043488213,-4.0
1519782050718,-0.5985809109636073,-0.1952544441901276,-0.5014114595254444
1519782050749,-0.2914473182269015,2.7466849774929427,1.677821011673152
1519782050781,-0.6269016556038758,-0.9633325703822386,-2.245090409704738
1519782050813,-0.7475089646753643,-0.24115358205539028,-1.08198672465095
1519782050845,-0.6171358815899901,0.33502708476386633,-1.297810330357824
1519782050876,-0.04046692607003877,-0.029724574654764524,-1.3236896314946214
1519782050908,-0.26068513008316163,0.5166704814221408,-0.2518959334706645
1519782050940,-0.05804531929503298,1.0142366674296177,0.06402685587853796
1519782050971,-0.36420233463035023,1.0718547341115432,1.6187380788891428
1519782051003,-1.3651941710536355,1.5757686732280458,-0.7987792782482641
1519782051035,1.4644388494697491,-0.6395971618219272,1.283283741512169
1519782051066,0.5884489204242005,-0.13763637750820168,0.9502708476386665
1519782051098,0.6792706187533382,0.3277027542534521,0.5474326695658807
1519782051130,0.23541618982223245,-0.8231937132829787,-0.5902800030518045
1519782051162,1.994720378423743,1.5752803845273515,1.4629739833676663
1519782051193,-0.25726710917830165,-0.21820401312275894,-1.6874647135118637
1519782051225,0.43024338139925256,-0.1430075532158388,1.4307469291218435
1519782051257,0.3545586327916377,-0.40326543068589293,1.240314335851072
1519782051288,0.07037460898756365,0.7603265430685893,1.6578011749446864
1519782051320,0.3486991683833063,-0.8837415121690699,2.2105439841306174
1519782051352,-0.31097886625467286,-0.20257877470054186,0.2490882734416724
1519782051383,0.06549172198062081,0.3750667582207985,-0.4862745098039216
1519782051415,0.9722438391699093,-0.3124437323567557,-0.7719233997100785
1519782051447,-0.7592278934920271,0.04107728694590662,-0.85639734493019
1519782051479,-0.466254673075456,-0.6532692454413671,-0.9154802777141984
1519782051510,-0.4105897611963072,-1.076615548943313,-1.3651941710536355
1519782051542,-0.9633325703822386,-1.0692912184328986,-0.08685435263599617
1519782051574,-0.40912489509422434,-0.7270008392462044,-1.7294575417715725
1519782051605,-0.22113374532692465,-0.731395437552453,-0.3314869916838332
1519782051637,-0.12103456168459603,-0.74702067597467,-0.6493629358358128
1519782051669,-0.18109407186999293,-1.0341344319829098,-1.0917524986648357
1519782051700,-0.18695353627832434,-1.3105058365758753,-1.2851148241397725
1519782051732,0.19635309376668975,-0.5844205386434731,-0.2162508583199818
1519782051764,0.13629358358129284,0.4043640802624555,-4.0
1519782051796,0.019592584115358136,0.6577859159227897,-0.6679179064621956
1519782051827,-0.14544899671931022,0.05816739147020655,-0.6532692454413671
1519782051852,-0.27240405889982444,0.3208667124437321,0.5269245441367207
1519782051884,1.9468680857557032,-1.1083543144884414,4.0
1519782051916,-1.135210193026627,0.8731212329289688,4.0
1519782051947,-0.5746547646295874,0.4531929503318839,1.7129777981231404
1519782051979,0.8550545510032803,-0.63080796520943,-1.5942015716792555
1519782052011,-0.07220569161516766,-0.32465094987411325,1.81551842526894
1519782052042,0.1528953994048985,-0.49457541771572444,0.5855191882200348
1519782052074,0.3301441977569235,0.04449530785076661,1.6714732585641263
1519782052106,0.4375677119096668,-0.1400778210116731,0.9068131532768753
1519782052137,-0.18744182497901862,-0.31293202105745044,1.4410009918364235
1519782052169,-0.5111772335393301,0.044007019150072324,0.9136491950865953
1519782052201,-0.026306553749904538,-0.04730296787975874,1.0039826047150378
1519782052233,-0.6391088731212329,0.3936217288471813,0.02935835812924381
1519782052264,-1.0966353856717785,0.315495536736095,-0.0736705577172505
1519782052296,-1.1347219043259327,0.5064164187075608,-0.027283131151293105
1519782052328,-0.27875181200885013,0.6294651712825212,0.17926298924238981
1519782052359,-0.6322728313115129,0.21832608529793252,-0.5043411917296101
1519782052391,-0.8119630731670098,-0.28412298771648725,-0.28168154421301583
1519782052423,-0.4418402380407418,-0.1581445029373616,-0.8617685206378272
1519782052454,-0.08343633173113618,-0.04583810177767589,-1.2724193179217211
1519782052486,-0.17718776226443866,-0.11126878767071036,-1.1620660715648126
1519782052518,-0.4198672465094986,0.14898908979934422,-0.6508278019378957
1519782052550,-0.5624475471122299,0.06988632028686936,-0.27826352330815585
1519782052581,-0.3944762340733958,0.22369726100556964,-1.1571831845578697
1519782052613,0.2695963988708323,-0.666941329060807,-1.4936140993362326
1519782052645,-0.39935912108033866,0.39459830624856984,-1.369588769359884
1519782052676,-0.6181124589913787,0.580636301213092,-0.4310978866254671
1519782052708,0.0015259021896696368,1.0586709391927975,-0.5106889448386358
1519782052740,1.438559548332952,-0.4745555809872588,-1.9648126955062182
1519782052771,0.13922331578545855,-0.6171358815899901,1.3189288166628517
1519782052803,-0.8139162279697874,-0.7733882658121614,2.4590829327840087
1519782052835,-1.6723277637903409,1.0518348973830776,1.002517738612955
1519782052867,0.5552452887769892,-0.9120622568093384,-0.844190127412833
1519782052898,-0.002868696116578917,-0.5434042877851528,0.8130617227435719
1519782052930,0.2095368886854354,-0.7758297093156328,0.5464560921644921
1519782052962,-0.04730296787975874,-0.5414511329823757,0.5362020294499121
1519782052993,-0.06878767071030767,-0.8324711985961701,-0.3324635690852218
1519782053025,0.15045395590142707,-1.111284046692607,0.40289921416037267
1519782053057,0.8799572747386897,0.4683299000534067,-1.097611963073167
1519782053088,0.49616235599298086,-0.9496604867627987,1.1343556878004124
1519782053114,-1.8051422903791865,0.14410620279240138,0.461982146944381
1519782053146,0.3301441977569235,-0.5878385595483331,1.4800640878919662
1519782053177,0.3247730220492864,-0.5141069657434958,1.0718547341115432
1519782053209,0.06988632028686936,-0.39691767757686724,1.023514152742809
1519782053241,-0.12591744869153887,-0.49115739681086446,0.8506599526970318
1519782053273,-0.6259250782024872,-0.44330510414282465,1.3008621347371632
1519782053304,-0.5692835889219503,0.10894941634241206,-0.09222552834363329
1519782053336,-0.7099107347219045,-0.1283588921950103,1.1763485160601208
1519782053368,-0.4037537193865872,-0.10492103456168467,1.6802624551766234
1519782053399,0.4385442893110554,-0.45844205386434744,-1.8168612191958498
1519782053431,-4.0,0.5396200503547721,1.1846494239719236
1519782053463,-4.0,1.7325093461509118,-4.0
1519782053494,-2.3256580453192948,-0.10638590066376752,-4.0
1519782053526,-0.46137178606851315,-1.4794537270160983,4.0
1519782053558,-1.1864805065995268,1.3379720759899287,4.0
1519782053589,-3.6801709010452432,0.23785763332570387,-3.302235446707866
1519782053621,-4.0,-3.9998779278248264,-2.5400167849240862
1519782053653,-4.0,-0.7162584878309302,-1.1254444190127413
1519782053684,0.5625696192874035,-2.110322728313115,1.0503700312809947
1519782053716,-0.5639124132143132,0.10894941634241206,-1.764614328221561
1519782053748,-0.4774853131914245,-0.9506370641641873,-1.6151979858091097
1519782053779,-1.3271076523994814,-0.11273365377279321,1.8531166552223999
1519782053811,-0.25091935606927596,-1.1415579461356526,-2.4111085679407953
1519782053843,-0.707469291218433,-0.7846189059281299,3.0049897001602197
1519782053875,-0.280216678110933,-0.892530708781567,0.4917677576867323
1519782053906,-0.6303196765087358,-0.8344243533989473,-1.5473258564126038
1519782053938,1.6719615472648206,1.2012512397955293,0.089906157015335
1519782053970,0.7696040283817807,-2.561989776455329,-3.7285114824139773
1519782054001,-0.5907682917524988,-0.8739757381551843,1.1529106584267952
1519782054033,0.14312962539101282,-0.6000457770656902,-0.3559014267185474
1519782054065,0.5528038452735178,-1.2699778744182497,-0.00970473792629889
1519782054096,-0.058533607995727266,-0.5028763256275273,-0.008728160524910322
1519782054128,0.3037766079194322,-1.0746623941405358,-1.1205615320057984
1519782054160,-0.06976424811169624,-1.1952697032120243,-0.6312962539101243
1519782054191,-0.29584191653315006,-0.9564965285725187,-0.18158236057068722
1519782054223,-0.30560769054703574,-0.5907682917524988,-0.5761196307316703
1519782054255,-0.3734798199435416,-0.8900892652780956,-0.22455176623178463
1519782054286,-0.6796368352788584,-1.2680247196154726,0.8281986724650947
1519782054318,-0.5292439154650186,-0.7304188601510644,-0.1190814068818189
1519782054350,-0.5141069657434958,-0.5663538567177846,-0.5526817730983442
1519782054375,-0.6200656137941558,-0.5878385595483331,-0.38226901655603873
1519782054407,-0.1791409170672158,-0.9291523613336383,-0.8451667048142215
1519782054439,-0.39740596627756153,-0.8476081483176929,-0.24554818036163883
1519782054470,-0.4511177233539332,-0.8217288471808959,-0.1342183566033417
1519782054502,-0.20550850690470757,-0.5810025177386131,-0.7103990234225988
1519782054534,-0.24798962386511025,-0.7465323872739758,-1.1088426031891356
1519782054565,-0.11663996337834748,-1.303181506065461,-0.7060044251163502
1519782054597,-0.17669947356374438,-0.39349965667200726,-0.7045395590142673
1519782054629,-0.3134203097581447,-0.4750438696879531,-1.1996643015182729
1519782054660,-0.5297322041657129,-0.0648813611047534,-1.2523994811932555
1519782054692,-0.2675211718928816,-0.24847791256580454,-0.5497520408941785
1519782054724,1.779385061417563,0.08648813611047501,-4.0
1519782054756,-0.25970855268177306,-0.30511940184634145,-1.4179293507286181
1519782054787,0.1704737926298927,0.19586480506599546,-0.8881361104753185
1519782054819,-0.5751430533302817,-0.06829938200961339,-0.6796368352788584
1519782054851,-0.1757228961623558,-0.7020981155107959,-0.0707408255130848
1519782054882,-0.5336385137712671,0.17193865873197556,-1.0375524528877698
1519782054914,-0.3065842679484243,0.03961242084382377,-0.8217288471808959
1519782054946,-0.8480964370183872,0.3545586327916377,-1.07856870374609
1519782054977,-0.25775539787899593,0.5977264057373919,-1.0741741054398415
1519782055009,-0.7875486381322956,0.23297474631876103,-0.7587396047913328
1519782055041,-1.7030899519340812,0.6172579537651632,-1.5942015716792555
1519782055072,-0.39984740978103295,0.2583657587548638,-1.2323796444647899
1519782055104,-0.3886167696650644,0.3364919508659492,-0.7963378347447927
1519782055136,-1.2587472343022812,1.2862134737163347,-0.5121538109407187
1519782055167,-0.8676279850461586,0.3208667124437321,-0.3075608453498129
1519782055199,-3.2221560997940033,1.9380788891432061,0.7544670786602579
1519782055231,-0.9892118715190357,-0.09271381704432757,3.5679865720607307
1519782055262,-0.7719233997100785,-0.3622491798275731,1.975677119096666
1519782055294,-0.33636987869077606,-0.1850003814755472,0.8281986724650947
1519782055326,-0.7514152742809186,-0.6903791866941331,1.378011749446861
1519782055357,-0.39691767757686724,-0.7060044251163502,0.6470435645075154
1519782055389,-0.36029602502479596,-0.6239719233997101,0.5064164187075608
1519782055421,-0.4603952086671246,-0.7113756008239873,0.5923552300297548
1519782055452,-0.4423285267414361,-0.6723125047684442,0.6861066605630581
1519782055484,-0.42914473182269,-0.5829556725413902,0.9702906843671322
1519782055516,-0.3070725566491186,-0.6435034714274814,0.677317463950561
1519782055547,-0.33099870298313894,-0.622018768596933,0.5874723430228119
1519782055579,-0.19769588769359903,-0.7885252155336842,1.2671702143892576
1519782055611,6.103608758678547E-5,-1.0365758754863812,1.4292820630197607
